"measurement_datetime","gps_error_meter","accel_y_longitudinal","accel_z_vertical","oid","longitude","car_name","latitude","measurement_ms","measurement_data_id","accel_x_transverse"
"2015/10/30 16:20:45","14","-1.448","9.6","1","139.928786","patrol01","37.490131","1446189648706","20151030_162045","0.846"
"2015/10/30 16:20:45","14","-1.445","9.594","2","139.928784","patrol01","37.49013","1446189648807","20151030_162045","0.862"
"2015/10/30 16:20:45","14","-1.455","9.598","3","139.928783","patrol01","37.490129","1446189648907","20151030_162045","0.888"
"2015/10/30 16:20:45","14","-1.461","9.598","4","139.928781","patrol01","37.490128","1446189649008","20151030_162045","0.872"
"2015/10/30 16:20:45","14","-1.454","9.6","5","139.92878","patrol01","37.490127","1446189649104","20151030_162045","0.853"
"2015/10/30 16:20:45","14","-1.446","9.594","6","139.928778","patrol01","37.490126","1446189649205","20151030_162045","0.862"
"2015/10/30 16:20:45","14","-1.45","9.596","7","139.928777","patrol01","37.490125","1446189649305","20151030_162045","0.881"
"2015/10/30 16:20:45","14","-1.455","9.591","8","139.928775","patrol01","37.490124","1446189649406","20151030_162045","0.873"
"2015/10/30 16:20:45","14","-1.461","9.603","9","139.928774","patrol01","37.490123","1446189649507","20151030_162045","0.857"
"2015/10/30 16:20:45","14","-1.447","9.596","10","139.928772","patrol01","37.490122","1446189649607","20151030_162045","0.856"
"2015/10/30 16:20:45","11","-1.439","9.597","11","139.928771","patrol01","37.490121","1446189649708","20151030_162045","0.863"
"2015/10/30 16:20:45","11","-1.453","9.597","12","139.92877","patrol01","37.49012","1446189649804","20151030_162045","0.869"
"2015/10/30 16:20:45","11","-1.465","9.592","13","139.928769","patrol01","37.490119","1446189649904","20151030_162045","0.864"
"2015/10/30 16:20:45","11","-1.461","9.604","14","139.928768","patrol01","37.490118","1446189650005","20151030_162045","0.858"
"2015/10/30 16:20:45","11","-1.446","9.587","15","139.928767","patrol01","37.490118","1446189650106","20151030_162045","0.865"
"2015/10/30 16:20:45","11","-1.439","9.598","16","139.928766","patrol01","37.490117","1446189650207","20151030_162045","0.869"
"2015/10/30 16:20:45","11","-1.444","9.587","17","139.928765","patrol01","37.490116","1446189650307","20151030_162045","0.863"
"2015/10/30 16:20:45","11","-1.465","9.601","18","139.928764","patrol01","37.490115","1446189650408","20151030_162045","0.866"
"2015/10/30 16:20:45","11","-1.469","9.6","19","139.928763","patrol01","37.490114","1446189650504","20151030_162045","0.87"
"2015/10/30 16:20:45","11","-1.447","9.59","20","139.928762","patrol01","37.490114","1446189650604","20151030_162045","0.867"
"2015/10/30 16:20:45","8","-1.431","9.603","21","139.928761","patrol01","37.490113","1446189650705","20151030_162045","0.859"
"2015/10/30 16:20:45","8","-1.446","9.593","22","139.92876","patrol01","37.490113","1446189650806","20151030_162045","0.867"
"2015/10/30 16:20:45","8","-1.462","9.608","23","139.928759","patrol01","37.490112","1446189650906","20151030_162045","0.85"
"2015/10/30 16:20:45","8","-1.463","9.592","24","139.928758","patrol01","37.490112","1446189651007","20151030_162045","0.845"
"2015/10/30 16:20:45","8","-1.431","9.607","25","139.928757","patrol01","37.490112","1446189651108","20151030_162045","0.865"
"2015/10/30 16:20:45","8","-1.409","9.612","26","139.928757","patrol01","37.490111","1446189651204","20151030_162045","0.887"
"2015/10/30 16:20:45","8","-1.43","9.581","27","139.928756","patrol01","37.490111","1446189651304","20151030_162045","0.865"
"2015/10/30 16:20:45","8","-1.469","9.602","28","139.928755","patrol01","37.490111","1446189651405","20151030_162045","0.841"
"2015/10/30 16:20:45","8","-1.446","9.591","29","139.928754","patrol01","37.49011","1446189651506","20151030_162045","0.859"
"2015/10/30 16:20:45","8","-1.429","9.602","30","139.928753","patrol01","37.49011","1446189651606","20151030_162045","0.88"
"2015/10/30 16:20:45","7","-1.453","9.594","31","139.928753","patrol01","37.49011","1446189651707","20151030_162045","0.87"
"2015/10/30 16:20:45","7","-1.461","9.6","32","139.928751","patrol01","37.490109","1446189651808","20151030_162045","0.85"
"2015/10/30 16:20:45","7","-1.44","9.602","33","139.92875","patrol01","37.490108","1446189651904","20151030_162045","0.864"
"2015/10/30 16:20:45","7","-1.435","9.597","34","139.928749","patrol01","37.490108","1446189652004","20151030_162045","0.87"
"2015/10/30 16:20:45","7","-1.449","9.603","35","139.928748","patrol01","37.490107","1446189652105","20151030_162045","0.859"
"2015/10/30 16:20:45","7","-1.444","9.599","36","139.928747","patrol01","37.490106","1446189652206","20151030_162045","0.854"
"2015/10/30 16:20:45","7","-1.435","9.602","37","139.928746","patrol01","37.490106","1446189652306","20151030_162045","0.858"
"2015/10/30 16:20:45","7","-1.427","9.634","38","139.928745","patrol01","37.490105","1446189652407","20151030_162045","0.869"
"2015/10/30 16:20:45","7","-1.437","9.605","39","139.928744","patrol01","37.490104","1446189652508","20151030_162045","0.86"
"2015/10/30 16:20:45","7","-1.44","9.606","40","139.928743","patrol01","37.490103","1446189652608","20151030_162045","0.853"
"2015/10/30 16:20:45","5","-1.435","9.613","41","139.928742","patrol01","37.490103","1446189652704","20151030_162045","0.86"
"2015/10/30 16:20:45","5","-1.443","9.599","42","139.928741","patrol01","37.490103","1446189652805","20151030_162045","0.866"
"2015/10/30 16:20:45","5","-1.445","9.609","43","139.928741","patrol01","37.490103","1446189652906","20151030_162045","0.876"
"2015/10/30 16:20:45","5","-1.436","9.613","44","139.92874","patrol01","37.490103","1446189653006","20151030_162045","0.859"
"2015/10/30 16:20:45","5","-1.447","9.602","45","139.928739","patrol01","37.490103","1446189653107","20151030_162045","0.861"
"2015/10/30 16:20:45","5","-1.45","9.601","46","139.928739","patrol01","37.490103","1446189653208","20151030_162045","0.875"
"2015/10/30 16:20:45","5","-1.443","9.596","47","139.928738","patrol01","37.490103","1446189653308","20151030_162045","0.879"
"2015/10/30 16:20:45","5","-1.429","9.601","48","139.928738","patrol01","37.490103","1446189653404","20151030_162045","0.881"
"2015/10/30 16:20:45","5","-1.436","9.645","49","139.928737","patrol01","37.490103","1446189653505","20151030_162045","0.859"
"2015/10/30 16:20:45","5","-1.466","9.633","50","139.928736","patrol01","37.490103","1446189653605","20151030_162045","0.849"
"2015/10/30 16:20:45","5","-1.444","9.63","51","139.928736","patrol01","37.490103","1446189653706","20151030_162045","0.87"
"2015/10/30 16:20:45","5","-1.415","9.611","52","139.928735","patrol01","37.490103","1446189653807","20151030_162045","0.865"
"2015/10/30 16:20:45","5","-1.437","9.613","53","139.928734","patrol01","37.490103","1446189653908","20151030_162045","0.856"
"2015/10/30 16:20:45","5","-1.449","9.596","54","139.928733","patrol01","37.490103","1446189654007","20151030_162045","0.859"
"2015/10/30 16:20:45","5","-1.433","9.653","55","139.928732","patrol01","37.490103","1446189654104","20151030_162045","0.848"
"2015/10/30 16:20:45","5","-1.437","9.659","56","139.928731","patrol01","37.490104","1446189654205","20151030_162045","0.853"
"2015/10/30 16:20:45","5","-1.432","9.627","57","139.92873","patrol01","37.490104","1446189654305","20151030_162045","0.861"
"2015/10/30 16:20:45","5","-1.429","9.612","58","139.928729","patrol01","37.490104","1446189654406","20151030_162045","0.852"
"2015/10/30 16:20:45","5","-1.426","9.596","59","139.928728","patrol01","37.490104","1446189654506","20151030_162045","0.855"
"2015/10/30 16:20:45","5","-1.432","9.604","60","139.928728","patrol01","37.490104","1446189654606","20151030_162045","0.866"
"2015/10/30 16:20:45","4","-1.445","9.598","61","139.928727","patrol01","37.490104","1446189654707","20151030_162045","0.867"
"2015/10/30 16:20:45","4","-1.451","9.602","62","139.928726","patrol01","37.490104","1446189654809","20151030_162045","0.862"
"2015/10/30 16:20:45","4","-1.435","9.608","63","139.928726","patrol01","37.490104","1446189654904","20151030_162045","0.868"
"2015/10/30 16:20:45","4","-1.425","9.602","64","139.928725","patrol01","37.490104","1446189655004","20151030_162045","0.872"
"2015/10/30 16:20:45","4","-1.445","9.63","65","139.928725","patrol01","37.490104","1446189655105","20151030_162045","0.874"
"2015/10/30 16:20:45","4","-1.434","9.609","66","139.928724","patrol01","37.490105","1446189655206","20151030_162045","0.878"
"2015/10/30 16:20:45","4","-1.432","9.591","67","139.928724","patrol01","37.490105","1446189655307","20151030_162045","0.871"
"2015/10/30 16:20:45","4","-1.44","9.603","68","139.928723","patrol01","37.490105","1446189655408","20151030_162045","0.843"
"2015/10/30 16:20:45","4","-1.438","9.605","69","139.928723","patrol01","37.490105","1446189655504","20151030_162045","0.82"
"2015/10/30 16:20:45","4","-1.444","9.597","70","139.928722","patrol01","37.490105","1446189655604","20151030_162045","0.848"
"2015/10/30 16:20:45","4","-1.433","9.612","71","139.928722","patrol01","37.490105","1446189655705","20151030_162045","0.887"
"2015/10/30 16:20:45","4","-1.426","9.61","72","139.928721","patrol01","37.490105","1446189655806","20151030_162045","0.893"
"2015/10/30 16:20:45","4","-1.434","9.605","73","139.928721","patrol01","37.490105","1446189655907","20151030_162045","0.87"
"2015/10/30 16:20:45","4","-1.462","9.606","74","139.928721","patrol01","37.490105","1446189656007","20151030_162045","0.855"
"2015/10/30 16:20:45","4","-1.45","9.611","75","139.92872","patrol01","37.490105","1446189656108","20151030_162045","0.862"
"2015/10/30 16:20:45","4","-1.424","9.602","76","139.92872","patrol01","37.490105","1446189656204","20151030_162045","0.872"
"2015/10/30 16:20:45","4","-1.436","9.6","77","139.928719","patrol01","37.490105","1446189656310","20151030_162045","0.871"
"2015/10/30 16:20:45","4","-1.453","9.614","78","139.928719","patrol01","37.490105","1446189656405","20151030_162045","0.878"
"2015/10/30 16:20:45","4","-1.416","9.6","79","139.928719","patrol01","37.490105","1446189656504","20151030_162045","0.858"
"2015/10/30 16:20:45","4","-1.38","9.6","80","139.928718","patrol01","37.490105","1446189656606","20151030_162045","0.847"
"2015/10/30 16:20:45","4","-1.315","9.575","81","139.928718","patrol01","37.490105","1446189656705","20151030_162045","0.848"
"2015/10/30 16:20:45","4","-1.231","9.602","82","139.928718","patrol01","37.490105","1446189656807","20151030_162045","0.877"
"2015/10/30 16:20:45","4","-1.167","9.608","83","139.928717","patrol01","37.490105","1446189656906","20151030_162045","0.882"
"2015/10/30 16:20:45","4","-1.134","9.617","84","139.928717","patrol01","37.490105","1446189657008","20151030_162045","0.874"
"2015/10/30 16:20:45","4","-1.114","9.584","85","139.928717","patrol01","37.490105","1446189657104","20151030_162045","0.851"
"2015/10/30 16:20:45","4","-1.111","9.586","86","139.928716","patrol01","37.490106","1446189657205","20151030_162045","0.843"
"2015/10/30 16:20:45","4","-1.123","9.604","87","139.928716","patrol01","37.490106","1446189657305","20151030_162045","0.828"
"2015/10/30 16:20:45","4","-1.166","9.621","88","139.928716","patrol01","37.490106","1446189657406","20151030_162045","0.815"
"2015/10/30 16:20:45","4","-1.232","9.609","89","139.928715","patrol01","37.490106","1446189657507","20151030_162045","0.821"
"2015/10/30 16:20:45","4","-1.285","9.603","90","139.928715","patrol01","37.490106","1446189657608","20151030_162045","0.82"
"2015/10/30 16:20:45","4","-1.343","9.631","91","139.928715","patrol01","37.490106","1446189657708","20151030_162045","0.792"
"2015/10/30 16:20:45","4","-1.418","9.614","92","139.928714","patrol01","37.490106","1446189657804","20151030_162045","0.768"
"2015/10/30 16:20:45","4","-1.471","9.615","93","139.928714","patrol01","37.490106","1446189657906","20151030_162045","0.767"
"2015/10/30 16:20:45","4","-1.496","9.624","94","139.928713","patrol01","37.490106","1446189658006","20151030_162045","0.782"
"2015/10/30 16:20:45","4","-1.532","9.609","95","139.928712","patrol01","37.490106","1446189658107","20151030_162045","0.768"
"2015/10/30 16:20:45","4","-1.555","9.608","96","139.928712","patrol01","37.490107","1446189658208","20151030_162045","0.751"
"2015/10/30 16:20:45","4","-1.434","9.625","97","139.928711","patrol01","37.490107","1446189658309","20151030_162045","0.748"
"2015/10/30 16:20:45","4","-1.27","9.656","98","139.928711","patrol01","37.490107","1446189658404","20151030_162045","0.764"
"2015/10/30 16:20:45","4","-1.148","9.647","99","139.92871","patrol01","37.490107","1446189658505","20151030_162045","0.77"
"2015/10/30 16:20:45","4","-1.132","9.645","100","139.928709","patrol01","37.490107","1446189658606","20151030_162045","0.731"
"2015/10/30 16:20:45","3","-1.153","9.65","101","139.928709","patrol01","37.490107","1446189658706","20151030_162045","0.707"
"2015/10/30 16:20:45","3","-1.188","9.645","102","139.928708","patrol01","37.490107","1446189658807","20151030_162045","0.713"
"2015/10/30 16:20:45","3","-1.186","9.619","103","139.928708","patrol01","37.490107","1446189658908","20151030_162045","0.701"
"2015/10/30 16:20:45","3","-1.156","9.618","104","139.928707","patrol01","37.490107","1446189659008","20151030_162045","0.679"
"2015/10/30 16:20:45","3","-1.107","9.639","105","139.928706","patrol01","37.490107","1446189659104","20151030_162045","0.697"
"2015/10/30 16:20:45","3","-1.091","9.635","106","139.928706","patrol01","37.490107","1446189659205","20151030_162045","0.745"
"2015/10/30 16:20:45","3","-1.086","9.641","107","139.928705","patrol01","37.490107","1446189659306","20151030_162045","0.801"
"2015/10/30 16:20:45","3","-1.108","9.627","108","139.928705","patrol01","37.490107","1446189659406","20151030_162045","0.835"
"2015/10/30 16:20:45","3","-1.187","9.629","109","139.928704","patrol01","37.490107","1446189659507","20151030_162045","0.877"
"2015/10/30 16:20:45","3","-1.304","9.619","110","139.928703","patrol01","37.490107","1446189659608","20151030_162045","0.901"
"2015/10/30 16:20:45","3","-1.374","9.603","111","139.928703","patrol01","37.490107","1446189659708","20151030_162045","0.905"
"2015/10/30 16:20:45","3","-1.373","9.6","112","139.928702","patrol01","37.490107","1446189659804","20151030_162045","0.895"
"2015/10/30 16:20:45","3","-1.373","9.608","113","139.928701","patrol01","37.490107","1446189659905","20151030_162045","0.891"
"2015/10/30 16:20:45","3","-1.376","9.602","114","139.928701","patrol01","37.490108","1446189660005","20151030_162045","0.859"
"2015/10/30 16:20:45","3","-1.346","9.627","115","139.9287","patrol01","37.490108","1446189660106","20151030_162045","0.831"
"2015/10/30 16:20:45","3","-1.328","9.617","116","139.928699","patrol01","37.490108","1446189660207","20151030_162045","0.809"
"2015/10/30 16:20:45","3","-1.29","9.607","117","139.928699","patrol01","37.490108","1446189660308","20151030_162045","0.783"
"2015/10/30 16:20:45","3","-1.269","9.611","118","139.928698","patrol01","37.490108","1446189660408","20151030_162045","0.798"
"2015/10/30 16:20:45","3","-1.252","9.601","119","139.928697","patrol01","37.490109","1446189660504","20151030_162045","0.836"
"2015/10/30 16:20:45","3","-1.183","9.632","120","139.928696","patrol01","37.490109","1446189660605","20151030_162045","0.901"
"2015/10/30 16:20:45","3","-1.196","9.615","121","139.928696","patrol01","37.490109","1446189660705","20151030_162045","0.862"
"2015/10/30 16:20:45","3","-1.253","9.611","122","139.928695","patrol01","37.490109","1446189660806","20151030_162045","0.838"
"2015/10/30 16:20:45","3","-1.24","9.616","123","139.928693","patrol01","37.49011","1446189660907","20151030_162045","0.796"
"2015/10/30 16:20:45","3","-1.189","9.647","124","139.928692","patrol01","37.49011","1446189661007","20151030_162045","0.764"
"2015/10/30 16:20:45","3","-1.182","9.629","125","139.928691","patrol01","37.49011","1446189661108","20151030_162045","0.759"
"2015/10/30 16:20:45","3","-1.171","9.623","126","139.92869","patrol01","37.490111","1446189661204","20151030_162045","0.803"
"2015/10/30 16:20:45","3","-1.122","9.627","127","139.928689","patrol01","37.490111","1446189661305","20151030_162045","0.825"
"2015/10/30 16:20:45","3","-1.08","9.625","128","139.928688","patrol01","37.490111","1446189661404","20151030_162045","0.836"
"2015/10/30 16:20:45","3","-1.082","9.639","129","139.928687","patrol01","37.490112","1446189661505","20151030_162045","0.889"
"2015/10/30 16:20:45","3","-1.088","9.632","130","139.928686","patrol01","37.490112","1446189661607","20151030_162045","0.937"
"2015/10/30 16:20:45","3","-1.085","9.625","131","139.928684","patrol01","37.490112","1446189661707","20151030_162045","0.951"
"2015/10/30 16:20:45","3","-1.075","9.623","132","139.928683","patrol01","37.490113","1446189661808","20151030_162045","0.917"
"2015/10/30 16:20:45","3","-1.053","9.629","133","139.928681","patrol01","37.490113","1446189661904","20151030_162045","0.838"
"2015/10/30 16:20:45","3","-0.927","9.627","134","139.92868","patrol01","37.490114","1446189662004","20151030_162045","0.749"
"2015/10/30 16:20:45","3","-0.782","9.641","135","139.928678","patrol01","37.490114","1446189662105","20151030_162045","0.671"
"2015/10/30 16:20:45","3","-0.833","9.688","136","139.928677","patrol01","37.490115","1446189662206","20151030_162045","0.583"
"2015/10/30 16:20:45","3","-0.885","9.693","137","139.928675","patrol01","37.490115","1446189662307","20151030_162045","0.509"
"2015/10/30 16:20:45","3","-0.838","9.622","138","139.928674","patrol01","37.490116","1446189662407","20151030_162045","0.501"
"2015/10/30 16:20:45","3","-0.878","9.626","139","139.928672","patrol01","37.490116","1446189662508","20151030_162045","0.464"
"2015/10/30 16:20:45","3","-0.951","9.866","140","139.92867","patrol01","37.490117","1446189662604","20151030_162045","0.347"
"2015/10/30 16:20:45","3","-1.1","9.962","141","139.928669","patrol01","37.490117","1446189662704","20151030_162045","0.24"
"2015/10/30 16:20:45","3","-1.213","9.796","142","139.928668","patrol01","37.490118","1446189662805","20151030_162045","0.292"
"2015/10/30 16:20:45","3","-1.261","9.595","143","139.928666","patrol01","37.490118","1446189662906","20151030_162045","0.416"
"2015/10/30 16:20:45","3","-1.227","9.56","144","139.928665","patrol01","37.490119","1446189663007","20151030_162045","0.581"
"2015/10/30 16:20:45","3","-1.166","9.56","145","139.928663","patrol01","37.490119","1446189663107","20151030_162045","0.625"
"2015/10/30 16:20:45","3","-1.149","9.555","146","139.928662","patrol01","37.49012","1446189663208","20151030_162045","0.604"
"2015/10/30 16:20:45","3","-1.127","9.586","147","139.928661","patrol01","37.490121","1446189663304","20151030_162045","0.618"
"2015/10/30 16:20:45","3","-1.149","9.685","148","139.928659","patrol01","37.490121","1446189663404","20151030_162045","0.721"
"2015/10/30 16:20:45","3","-1.281","9.741","149","139.928658","patrol01","37.490122","1446189663505","20151030_162045","0.861"
"2015/10/30 16:20:45","3","-1.379","9.758","150","139.928656","patrol01","37.490122","1446189663606","20151030_162045","0.837"
"2015/10/30 16:20:45","3","-1.441","9.667","151","139.928655","patrol01","37.490123","1446189663706","20151030_162045","0.734"
"2015/10/30 16:20:45","3","-1.438","9.57","152","139.928654","patrol01","37.490123","1446189663807","20151030_162045","0.61"
"2015/10/30 16:20:45","3","-1.361","9.549","153","139.928652","patrol01","37.490124","1446189663908","20151030_162045","0.512"
"2015/10/30 16:20:45","3","-1.328","9.605","154","139.928651","patrol01","37.490124","1446189664004","20151030_162045","0.416"
"2015/10/30 16:20:45","3","-1.326","9.701","155","139.92865","patrol01","37.490124","1446189664104","20151030_162045","0.351"
"2015/10/30 16:20:45","3","-1.255","9.649","156","139.928648","patrol01","37.490125","1446189664205","20151030_162045","0.36"
"2015/10/30 16:20:45","3","-1.102","9.616","157","139.928647","patrol01","37.490125","1446189664306","20151030_162045","0.418"
"2015/10/30 16:20:45","3","-0.946","9.628","158","139.928646","patrol01","37.490125","1446189664406","20151030_162045","0.531"
"2015/10/30 16:20:45","3","-0.874","9.618","159","139.928644","patrol01","37.490125","1446189664507","20151030_162045","0.628"
"2015/10/30 16:20:45","3","-0.788","9.615","160","139.928643","patrol01","37.490126","1446189664608","20151030_162045","0.728"
"2015/10/30 16:20:45","3","-0.695","9.54","161","139.928642","patrol01","37.490126","1446189664708","20151030_162045","0.788"
"2015/10/30 16:20:45","3","-0.569","9.518","162","139.928641","patrol01","37.490126","1446189664804","20151030_162045","0.855"
"2015/10/30 16:20:45","3","-0.496","9.635","163","139.928639","patrol01","37.490127","1446189664905","20151030_162045","0.808"
"2015/10/30 16:20:45","3","-0.457","9.768","164","139.928638","patrol01","37.490127","1446189665006","20151030_162045","0.713"
"2015/10/30 16:20:45","3","-0.479","9.761","165","139.928636","patrol01","37.490127","1446189665106","20151030_162045","0.682"
"2015/10/30 16:20:45","3","-0.544","9.863","166","139.928635","patrol01","37.490128","1446189665207","20151030_162045","0.515"
"2015/10/30 16:20:45","3","-0.6","9.845","167","139.928633","patrol01","37.490128","1446189665308","20151030_162045","0.338"
"2015/10/30 16:20:45","3","-0.67","9.766","168","139.928632","patrol01","37.490128","1446189665408","20151030_162045","0.183"
"2015/10/30 16:20:45","3","-0.702","9.825","169","139.928631","patrol01","37.490128","1446189665504","20151030_162045","0.128"
"2015/10/30 16:20:45","3","-0.791","9.771","170","139.928629","patrol01","37.490129","1446189665605","20151030_162045","0.141"
"2015/10/30 16:20:45","3","-0.854","9.602","171","139.928628","patrol01","37.490129","1446189665705","20151030_162045","0.339"
"2015/10/30 16:20:45","3","-0.86","9.508","172","139.928627","patrol01","37.490129","1446189665805","20151030_162045","0.508"
"2015/10/30 16:20:45","3","-0.796","9.537","173","139.928625","patrol01","37.490129","1446189665906","20151030_162045","0.48"
"2015/10/30 16:20:45","3","-0.746","9.668","174","139.928624","patrol01","37.49013","1446189666007","20151030_162045","0.378"
"2015/10/30 16:20:45","3","-0.734","9.744","175","139.928623","patrol01","37.49013","1446189666107","20151030_162045","0.234"
"2015/10/30 16:20:45","3","-0.813","9.786","176","139.928621","patrol01","37.49013","1446189666208","20151030_162045","0.296"
"2015/10/30 16:20:45","3","-0.857","9.785","177","139.92862","patrol01","37.49013","1446189666304","20151030_162045","0.497"
"2015/10/30 16:20:45","3","-0.938","9.707","178","139.928619","patrol01","37.49013","1446189666404","20151030_162045","0.609"
"2015/10/30 16:20:45","3","-1.031","9.682","179","139.928618","patrol01","37.490131","1446189666505","20151030_162045","0.593"
"2015/10/30 16:20:45","3","-1.012","9.725","180","139.928616","patrol01","37.490131","1446189666606","20151030_162045","0.567"
"2015/10/30 16:20:45","3","-1.033","9.685","181","139.928615","patrol01","37.490131","1446189666707","20151030_162045","0.537"
"2015/10/30 16:20:45","3","-1.053","9.654","182","139.928614","patrol01","37.490131","1446189666807","20151030_162045","0.539"
"2015/10/30 16:20:45","3","-0.942","9.725","183","139.928612","patrol01","37.490132","1446189666909","20151030_162045","0.445"
"2015/10/30 16:20:45","3","-0.938","9.722","184","139.928611","patrol01","37.490132","1446189667004","20151030_162045","0.389"
"2015/10/30 16:20:45","3","-0.991","9.646","185","139.928609","patrol01","37.490132","1446189667104","20151030_162045","0.434"
"2015/10/30 16:20:45","3","-1.018","9.645","186","139.928608","patrol01","37.490133","1446189667205","20151030_162045","0.49"
"2015/10/30 16:20:45","3","-1.02","9.67","187","139.928607","patrol01","37.490133","1446189667306","20151030_162045","0.538"
"2015/10/30 16:20:45","3","-1.108","9.594","188","139.928605","patrol01","37.490133","1446189667407","20151030_162045","0.554"
"2015/10/30 16:20:45","3","-1.137","9.723","189","139.928604","patrol01","37.490133","1446189667507","20151030_162045","0.548"
"2015/10/30 16:20:45","3","-1.212","9.674","190","139.928602","patrol01","37.490134","1446189667608","20151030_162045","0.488"
"2015/10/30 16:20:45","3","-1.262","9.609","191","139.928601","patrol01","37.490134","1446189667704","20151030_162045","0.485"
"2015/10/30 16:20:45","3","-1.275","9.655","192","139.9286","patrol01","37.490134","1446189667804","20151030_162045","0.472"
"2015/10/30 16:20:45","3","-1.368","9.621","193","139.928599","patrol01","37.490135","1446189667905","20151030_162045","0.417"
"2015/10/30 16:20:45","3","-1.434","9.64","194","139.928598","patrol01","37.490135","1446189668006","20151030_162045","0.449"
"2015/10/30 16:20:45","3","-1.424","9.65","195","139.928597","patrol01","37.490136","1446189668107","20151030_162045","0.489"
"2015/10/30 16:20:45","3","-1.415","9.653","196","139.928595","patrol01","37.490136","1446189668208","20151030_162045","0.479"
"2015/10/30 16:20:45","3","-1.428","9.631","197","139.928594","patrol01","37.490136","1446189668304","20151030_162045","0.457"
"2015/10/30 16:20:45","3","-1.39","9.647","198","139.928593","patrol01","37.490137","1446189668404","20151030_162045","0.428"
"2015/10/30 16:20:45","3","-1.378","9.669","199","139.928592","patrol01","37.490137","1446189668504","20151030_162045","0.435"
"2015/10/30 16:20:45","3","-1.365","9.638","200","139.928591","patrol01","37.490138","1446189668605","20151030_162045","0.465"
"2015/10/30 16:20:45","3","-1.327","9.608","201","139.92859","patrol01","37.490138","1446189668706","20151030_162045","0.461"
"2015/10/30 16:20:45","3","-1.346","9.683","202","139.928589","patrol01","37.490139","1446189668806","20151030_162045","0.416"
"2015/10/30 16:20:45","3","-1.471","9.649","203","139.928589","patrol01","37.490139","1446189668907","20151030_162045","0.416"
"2015/10/30 16:20:45","3","-1.621","9.63","204","139.928588","patrol01","37.49014","1446189669008","20151030_162045","0.426"
"2015/10/30 16:20:45","3","-1.52","9.628","205","139.928588","patrol01","37.49014","1446189669108","20151030_162045","0.451"
"2015/10/30 16:20:45","3","-1.097","9.649","206","139.928587","patrol01","37.490141","1446189669204","20151030_162045","0.475"
"2015/10/30 16:20:45","3","-0.813","9.69","207","139.928587","patrol01","37.490141","1446189669305","20151030_162045","0.502"
"2015/10/30 16:20:45","3","-0.85","9.697","208","139.928586","patrol01","37.490142","1446189669406","20151030_162045","0.552"
"2015/10/30 16:20:45","3","-0.949","9.699","209","139.928586","patrol01","37.490142","1446189669506","20151030_162045","0.593"
"2015/10/30 16:20:45","3","-0.926","9.714","210","139.928585","patrol01","37.490143","1446189669607","20151030_162045","0.587"
"2015/10/30 16:20:45","3","-0.895","9.677","211","139.928585","patrol01","37.490143","1446189669708","20151030_162045","0.522"
"2015/10/30 16:20:45","3","-0.992","9.742","212","139.928585","patrol01","37.490144","1446189669808","20151030_162045","0.577"
"2015/10/30 16:20:45","3","-1.119","9.715","213","139.928585","patrol01","37.490144","1446189669904","20151030_162045","0.605"
"2015/10/30 16:20:45","3","-1.209","9.671","214","139.928584","patrol01","37.490145","1446189670005","20151030_162045","0.62"
"2015/10/30 16:20:45","3","-1.122","9.63","215","139.928584","patrol01","37.490145","1446189670105","20151030_162045","0.606"
"2015/10/30 16:20:45","3","-1.045","9.674","216","139.928584","patrol01","37.490146","1446189670206","20151030_162045","0.605"
"2015/10/30 16:20:45","3","-1.068","9.643","217","139.928584","patrol01","37.490146","1446189670307","20151030_162045","0.657"
"2015/10/30 16:20:45","3","-1.028","9.664","218","139.928584","patrol01","37.490147","1446189670408","20151030_162045","0.646"
"2015/10/30 16:20:45","3","-1.051","9.662","219","139.928583","patrol01","37.490147","1446189670508","20151030_162045","0.677"
"2015/10/30 16:20:45","3","-1.017","9.635","220","139.928583","patrol01","37.490148","1446189670609","20151030_162045","0.666"
"2015/10/30 16:20:45","3","-1.011","9.621","221","139.928583","patrol01","37.490148","1446189670705","20151030_162045","0.676"
"2015/10/30 16:20:45","3","-1.013","9.63","222","139.928583","patrol01","37.490148","1446189670804","20151030_162045","0.692"
"2015/10/30 16:20:45","3","-1.006","9.63","223","139.928583","patrol01","37.490149","1446189670906","20151030_162045","0.707"
"2015/10/30 16:20:45","3","-0.989","9.615","224","139.928583","patrol01","37.490149","1446189671005","20151030_162045","0.724"
"2015/10/30 16:20:45","3","-0.979","9.661","225","139.928583","patrol01","37.490149","1446189671107","20151030_162045","0.741"
"2015/10/30 16:20:45","3","-0.976","9.664","226","139.928584","patrol01","37.49015","1446189671207","20151030_162045","0.738"
"2015/10/30 16:20:45","3","-0.976","9.654","227","139.928584","patrol01","37.49015","1446189671304","20151030_162045","0.694"
"2015/10/30 16:20:45","3","-0.957","9.664","228","139.928584","patrol01","37.49015","1446189671405","20151030_162045","0.678"
"2015/10/30 16:20:45","3","-0.955","9.671","229","139.928584","patrol01","37.49015","1446189671505","20151030_162045","0.701"
"2015/10/30 16:20:45","3","-0.95","9.675","230","139.928584","patrol01","37.490151","1446189671606","20151030_162045","0.687"
"2015/10/30 16:20:45","3","-0.973","9.695","231","139.928584","patrol01","37.490151","1446189671707","20151030_162045","0.683"
"2015/10/30 16:20:45","3","-1.002","9.662","232","139.928584","patrol01","37.490152","1446189671807","20151030_162045","0.667"
"2015/10/30 16:20:45","3","-1.03","9.654","233","139.928584","patrol01","37.490152","1446189671908","20151030_162045","0.681"
"2015/10/30 16:20:45","3","-1.076","9.645","234","139.928583","patrol01","37.490153","1446189672004","20151030_162045","0.723"
"2015/10/30 16:20:45","3","-1.134","9.649","235","139.928583","patrol01","37.490153","1446189672105","20151030_162045","0.794"
"2015/10/30 16:20:45","3","-1.205","9.623","236","139.928583","patrol01","37.490154","1446189672205","20151030_162045","0.869"
"2015/10/30 16:20:45","3","-1.263","9.62","237","139.928583","patrol01","37.490154","1446189672306","20151030_162045","0.901"
"2015/10/30 16:20:45","3","-1.287","9.645","238","139.928583","patrol01","37.490155","1446189672407","20151030_162045","0.901"
"2015/10/30 16:20:45","3","-1.321","9.632","239","139.928582","patrol01","37.490155","1446189672507","20151030_162045","0.948"
"2015/10/30 16:20:45","3","-1.386","9.639","240","139.928582","patrol01","37.490156","1446189672608","20151030_162045","1.081"
"2015/10/30 16:20:45","3","-1.465","9.567","241","139.928582","patrol01","37.490156","1446189672704","20151030_162045","1.12"
"2015/10/30 16:20:45","3","-1.523","9.569","242","139.928583","patrol01","37.490157","1446189672804","20151030_162045","1.119"
"2015/10/30 16:20:45","3","-1.543","9.62","243","139.928583","patrol01","37.490157","1446189672905","20151030_162045","1.057"
"2015/10/30 16:20:45","3","-1.518","9.536","244","139.928584","patrol01","37.490158","1446189673006","20151030_162045","1.099"
"2015/10/30 16:20:45","3","-1.451","9.532","245","139.928585","patrol01","37.490159","1446189673107","20151030_162045","1.15"
"2015/10/30 16:20:45","3","-1.38","9.635","246","139.928586","patrol01","37.49016","1446189673207","20151030_162045","1.183"
"2015/10/30 16:20:45","3","-1.381","9.609","247","139.928586","patrol01","37.49016","1446189673308","20151030_162045","1.26"
"2015/10/30 16:20:45","3","-1.416","9.569","248","139.928587","patrol01","37.490161","1446189673404","20151030_162045","1.38"
"2015/10/30 16:20:45","3","-1.376","9.561","249","139.928588","patrol01","37.490162","1446189673504","20151030_162045","1.386"
"2015/10/30 16:20:45","3","-1.236","9.572","250","139.928588","patrol01","37.490162","1446189673605","20151030_162045","1.495"
"2015/10/30 16:20:45","3","-1.168","9.494","251","139.928589","patrol01","37.490163","1446189673706","20151030_162045","1.603"
"2015/10/30 16:20:45","3","-1.042","9.612","252","139.92859","patrol01","37.490164","1446189673807","20151030_162045","1.575"
"2015/10/30 16:20:45","3","-0.956","9.649","253","139.928591","patrol01","37.490165","1446189673907","20151030_162045","1.44"
"2015/10/30 16:20:45","3","-0.985","9.573","254","139.928591","patrol01","37.490167","1446189674008","20151030_162045","1.371"
"2015/10/30 16:20:45","3","-0.998","9.461","255","139.928592","patrol01","37.490168","1446189674104","20151030_162045","1.523"
"2015/10/30 16:20:45","3","-0.821","9.538","256","139.928593","patrol01","37.490169","1446189674204","20151030_162045","1.573"
"2015/10/30 16:20:45","3","-0.76","9.589","257","139.928594","patrol01","37.49017","1446189674305","20151030_162045","1.742"
"2015/10/30 16:20:45","3","-0.716","9.527","258","139.928595","patrol01","37.490171","1446189674406","20151030_162045","1.74"
"2015/10/30 16:20:45","3","-0.641","9.586","259","139.928595","patrol01","37.490173","1446189674506","20151030_162045","1.651"
"2015/10/30 16:20:45","3","-0.668","9.532","260","139.928596","patrol01","37.490174","1446189674607","20151030_162045","1.575"
"2015/10/30 16:20:45","3","-0.753","9.574","261","139.928597","patrol01","37.490175","1446189674708","20151030_162045","1.129"
"2015/10/30 16:20:45","3","-0.842","9.721","262","139.928598","patrol01","37.490177","1446189674808","20151030_162045","0.606"
"2015/10/30 16:20:45","3","-0.921","9.623","263","139.928598","patrol01","37.490179","1446189674904","20151030_162045","0.364"
"2015/10/30 16:20:45","3","-0.94","9.544","264","139.928599","patrol01","37.490181","1446189675005","20151030_162045","0.359"
"2015/10/30 16:20:45","3","-0.816","9.687","265","139.928599","patrol01","37.490183","1446189675106","20151030_162045","0.346"
"2015/10/30 16:20:45","3","-0.64","9.91","266","139.9286","patrol01","37.490185","1446189675206","20151030_162045","0.351"
"2015/10/30 16:20:45","3","-0.591","9.861","267","139.928601","patrol01","37.490187","1446189675307","20151030_162045","0.534"
"2015/10/30 16:20:45","3","-0.644","9.655","268","139.928601","patrol01","37.490189","1446189675408","20151030_162045","0.676"
"2015/10/30 16:20:45","3","-0.585","9.684","269","139.928602","patrol01","37.490191","1446189675509","20151030_162045","0.689"
"2015/10/30 16:20:45","3","-0.595","9.682","270","139.928602","patrol01","37.490193","1446189675604","20151030_162045","0.534"
"2015/10/30 16:20:45","3","-0.726","9.631","271","139.928603","patrol01","37.490195","1446189675705","20151030_162045","0.276"
"2015/10/30 16:20:45","3","-0.902","9.477","272","139.928603","patrol01","37.490197","1446189675806","20151030_162045","0.199"
"2015/10/30 16:20:45","3","-1.037","9.525","273","139.928603","patrol01","37.490199","1446189675906","20151030_162045","0.291"
"2015/10/30 16:20:45","3","-1.169","9.697","274","139.928604","patrol01","37.490201","1446189676007","20151030_162045","0.307"
"2015/10/30 16:20:45","3","-1.14","9.841","275","139.928604","patrol01","37.490203","1446189676108","20151030_162045","0.197"
"2015/10/30 16:20:45","3","-1.189","9.724","276","139.928604","patrol01","37.490205","1446189676208","20151030_162045","0.218"
"2015/10/30 16:20:45","3","-1.282","9.622","277","139.928604","patrol01","37.490206","1446189676304","20151030_162045","0.256"
"2015/10/30 16:20:45","3","-1.268","9.597","278","139.928604","patrol01","37.490208","1446189676405","20151030_162045","0.416"
"2015/10/30 16:20:45","3","-1.238","9.636","279","139.928605","patrol01","37.49021","1446189676505","20151030_162045","0.606"
"2015/10/30 16:20:45","3","-1.293","9.571","280","139.928605","patrol01","37.490212","1446189676606","20151030_162045","0.624"
"2015/10/30 16:20:45","3","-1.308","9.533","281","139.928605","patrol01","37.490214","1446189676707","20151030_162045","0.399"
"2015/10/30 16:20:45","3","-1.331","9.483","282","139.928605","patrol01","37.490216","1446189676808","20151030_162045","0.218"
"2015/10/30 16:20:45","3","-1.273","9.635","283","139.928605","patrol01","37.490217","1446189676908","20151030_162045","0.104"
"2015/10/30 16:20:45","3","-1.158","9.819","284","139.928606","patrol01","37.490219","1446189677004","20151030_162045","0.173"
"2015/10/30 16:20:45","3","-0.911","10.249","285","139.928606","patrol01","37.49022","1446189677105","20151030_162045","0.195"
"2015/10/30 16:20:45","3","-0.863","10.223","286","139.928606","patrol01","37.490222","1446189677205","20151030_162045","0.251"
"2015/10/30 16:20:45","3","-0.992","9.673","287","139.928606","patrol01","37.490224","1446189677306","20151030_162045","0.371"
"2015/10/30 16:20:45","3","-1.09","9.371","288","139.928606","patrol01","37.490225","1446189677407","20151030_162045","0.469"
"2015/10/30 16:20:45","3","-1.117","9.33","289","139.928607","patrol01","37.490227","1446189677507","20151030_162045","0.378"
"2015/10/30 16:20:45","3","-1.06","9.51","290","139.928607","patrol01","37.490229","1446189677608","20151030_162045","0.242"
"2015/10/30 16:20:45","4","-0.998","9.754","291","139.928607","patrol01","37.49023","1446189677704","20151030_162045","0.156"
"2015/10/30 16:20:45","4","-1.095","9.741","292","139.928607","patrol01","37.490233","1446189677805","20151030_162045","0.223"
"2015/10/30 16:20:45","4","-1.127","9.621","293","139.928607","patrol01","37.490236","1446189677905","20151030_162045","0.226"
"2015/10/30 16:20:45","4","-1.235","9.618","294","139.928607","patrol01","37.490239","1446189678006","20151030_162045","0.264"
"2015/10/30 16:20:45","4","-1.069","9.791","295","139.928607","patrol01","37.490242","1446189678107","20151030_162045","0.134"
"2015/10/30 16:20:45","4","-0.85","9.817","296","139.928607","patrol01","37.490245","1446189678207","20151030_162045","0.167"
"2015/10/30 16:20:45","4","-0.922","9.559","297","139.928607","patrol01","37.490248","1446189678308","20151030_162045","0.327"
"2015/10/30 16:20:45","4","-0.924","9.517","298","139.928607","patrol01","37.49025","1446189678404","20151030_162045","0.473"
"2015/10/30 16:20:45","4","-1.023","9.574","299","139.928607","patrol01","37.490253","1446189678505","20151030_162045","0.535"
"2015/10/30 16:20:45","4","-1.047","9.549","300","139.928607","patrol01","37.490256","1446189678605","20151030_162045","0.443"
"2015/10/30 16:20:45","5","-0.98","9.615","301","139.928607","patrol01","37.490259","1446189678706","20151030_162045","0.427"
"2015/10/30 16:20:45","5","-0.982","9.623","302","139.928608","patrol01","37.490261","1446189678807","20151030_162045","0.319"
"2015/10/30 16:20:45","5","-0.898","9.669","303","139.928609","patrol01","37.490264","1446189678907","20151030_162045","0.195"
"2015/10/30 16:20:45","5","-0.902","9.804","304","139.92861","patrol01","37.490266","1446189679008","20151030_162045","0.302"
"2015/10/30 16:20:45","5","-0.808","9.789","305","139.928611","patrol01","37.490268","1446189679104","20151030_162045","0.312"
"2015/10/30 16:20:45","5","-0.7","9.763","306","139.928612","patrol01","37.49027","1446189679204","20151030_162045","0.48"
"2015/10/30 16:20:45","5","-0.73","9.654","307","139.928612","patrol01","37.490272","1446189679305","20151030_162045","0.433"
"2015/10/30 16:20:45","5","-0.697","9.662","308","139.928613","patrol01","37.490275","1446189679406","20151030_162045","0.387"
"2015/10/30 16:20:45","5","-0.685","9.593","309","139.928614","patrol01","37.490277","1446189679507","20151030_162045","0.417"
"2015/10/30 16:20:45","5","-0.648","9.609","310","139.928615","patrol01","37.490279","1446189679607","20151030_162045","0.391"
"2015/10/30 16:20:45","5","-0.66","9.627","311","139.928616","patrol01","37.490281","1446189679708","20151030_162045","0.416"
"2015/10/30 16:20:45","5","-0.626","9.783","312","139.928617","patrol01","37.490284","1446189679804","20151030_162045","0.378"
"2015/10/30 16:20:45","5","-0.459","9.994","313","139.928618","patrol01","37.490286","1446189679904","20151030_162045","0.504"
"2015/10/30 16:20:45","5","-0.419","9.931","314","139.928619","patrol01","37.490289","1446189680005","20151030_162045","0.548"
"2015/10/30 16:20:45","5","-0.485","9.727","315","139.92862","patrol01","37.490291","1446189680106","20151030_162045","0.569"
"2015/10/30 16:20:45","5","-0.445","9.605","316","139.928621","patrol01","37.490294","1446189680206","20151030_162045","0.369"
"2015/10/30 16:20:45","5","-0.413","9.612","317","139.928622","patrol01","37.490296","1446189680307","20151030_162045","0.354"
"2015/10/30 16:20:45","5","-0.318","9.735","318","139.928623","patrol01","37.490299","1446189680408","20151030_162045","0.467"
"2015/10/30 16:20:45","5","-0.346","9.614","319","139.928624","patrol01","37.490301","1446189680504","20151030_162045","0.654"
"2015/10/30 16:20:45","5","-0.365","9.542","320","139.928625","patrol01","37.490304","1446189680604","20151030_162045","0.438"
"2015/10/30 16:20:45","6","-0.192","9.779","321","139.928626","patrol01","37.490306","1446189680705","20151030_162045","0.199"
"2015/10/30 16:20:45","6","0.031","10.049","322","139.928626","patrol01","37.490309","1446189680806","20151030_162045","0.289"
"2015/10/30 16:20:45","6","0.257","10.053","323","139.928626","patrol01","37.490311","1446189680906","20151030_162045","0.41"
"2015/10/30 16:20:45","6","0.373","9.792","324","139.928626","patrol01","37.490313","1446189681007","20151030_162045","0.638"
"2015/10/30 16:20:45","6","0.325","9.542","325","139.928626","patrol01","37.490316","1446189681108","20151030_162045","0.72"
"2015/10/30 16:20:45","6","0.238","9.484","326","139.928627","patrol01","37.490318","1446189681204","20151030_162045","0.59"
"2015/10/30 16:20:45","6","0.215","9.702","327","139.928627","patrol01","37.49032","1446189681304","20151030_162045","0.41"
"2015/10/30 16:20:45","6","0.169","9.724","328","139.928627","patrol01","37.490323","1446189681405","20151030_162045","0.241"
"2015/10/30 16:20:45","6","0.06","9.723","329","139.928627","patrol01","37.490325","1446189681506","20151030_162045","0.268"
"2015/10/30 16:20:45","6","-0.053","9.731","330","139.928627","patrol01","37.490328","1446189681606","20151030_162045","0.347"
"2015/10/30 16:20:45","8","-0.218","9.66","331","139.928627","patrol01","37.49033","1446189681707","20151030_162045","0.354"
"2015/10/30 16:20:45","8","-0.375","9.705","332","139.928626","patrol01","37.490332","1446189681808","20151030_162045","0.278"
"2015/10/30 16:20:45","8","-0.503","9.713","333","139.928626","patrol01","37.490334","1446189681908","20151030_162045","0.216"
"2015/10/30 16:20:45","8","-0.522","9.779","334","139.928625","patrol01","37.490335","1446189682004","20151030_162045","0.328"
"2015/10/30 16:20:45","8","-0.544","9.807","335","139.928624","patrol01","37.490337","1446189682105","20151030_162045","0.445"
"2015/10/30 16:20:45","8","-0.403","9.775","336","139.928623","patrol01","37.490339","1446189682206","20151030_162045","0.518"
"2015/10/30 16:20:45","8","-0.387","9.676","337","139.928623","patrol01","37.49034","1446189682306","20151030_162045","0.512"
"2015/10/30 16:20:45","8","-0.455","9.643","338","139.928622","patrol01","37.490342","1446189682407","20151030_162045","0.532"
"2015/10/30 16:20:45","8","-0.437","9.649","339","139.928621","patrol01","37.490344","1446189682508","20151030_162045","0.522"
"2015/10/30 16:20:45","8","-0.516","9.557","340","139.928621","patrol01","37.490345","1446189682608","20151030_162045","0.513"
"2015/10/30 16:20:45","8","-0.46","9.7","341","139.92862","patrol01","37.490347","1446189682704","20151030_162045","0.45"
"2015/10/30 16:20:45","8","-0.457","9.732","342","139.928621","patrol01","37.490349","1446189682805","20151030_162045","0.352"
"2015/10/30 16:20:45","8","-0.374","9.742","343","139.928622","patrol01","37.49035","1446189682905","20151030_162045","0.343"
"2015/10/30 16:20:45","8","-0.371","9.669","344","139.928624","patrol01","37.490352","1446189683006","20151030_162045","0.344"
"2015/10/30 16:20:45","8","-0.33","9.652","345","139.928625","patrol01","37.490354","1446189683107","20151030_162045","0.256"
"2015/10/30 16:20:45","8","-0.325","9.715","346","139.928626","patrol01","37.490355","1446189683208","20151030_162045","0.29"
"2015/10/30 16:20:45","8","-0.299","9.727","347","139.928627","patrol01","37.490357","1446189683308","20151030_162045","0.433"
"2015/10/30 16:20:45","8","-0.299","9.739","348","139.928628","patrol01","37.490358","1446189683404","20151030_162045","0.489"
"2015/10/30 16:20:45","8","-0.347","9.672","349","139.92863","patrol01","37.49036","1446189683505","20151030_162045","0.496"
"2015/10/30 16:20:45","8","-0.292","9.761","350","139.928631","patrol01","37.490361","1446189683605","20151030_162045","0.45"
"2015/10/30 16:20:45","9","-0.255","9.804","351","139.928632","patrol01","37.490363","1446189683706","20151030_162045","0.395"
"2015/10/30 16:20:45","9","-0.313","9.701","352","139.92863","patrol01","37.490364","1446189683807","20151030_162045","0.318"
"2015/10/30 16:20:45","9","-0.414","9.679","353","139.928629","patrol01","37.490365","1446189683907","20151030_162045","0.317"
"2015/10/30 16:20:45","9","-0.57","9.649","354","139.928627","patrol01","37.490366","1446189684008","20151030_162045","0.366"
"2015/10/30 16:20:45","9","-0.72","9.66","355","139.928626","patrol01","37.490367","1446189684104","20151030_162045","0.383"
"2015/10/30 16:20:45","9","-0.757","9.689","356","139.928624","patrol01","37.490368","1446189684205","20151030_162045","0.453"
"2015/10/30 16:20:45","9","-0.799","9.692","357","139.928623","patrol01","37.490368","1446189684305","20151030_162045","0.531"
"2015/10/30 16:20:45","9","-0.83","9.642","358","139.928621","patrol01","37.490369","1446189684406","20151030_162045","0.48"
"2015/10/30 16:20:45","9","-0.843","9.639","359","139.92862","patrol01","37.49037","1446189684507","20151030_162045","0.473"
"2015/10/30 16:20:45","9","-0.829","9.716","360","139.928618","patrol01","37.490371","1446189684607","20151030_162045","0.428"
"2015/10/30 16:20:45","7","-0.82","9.707","361","139.928617","patrol01","37.490372","1446189684708","20151030_162045","0.546"
"2015/10/30 16:20:45","7","-0.763","9.701","362","139.928617","patrol01","37.490373","1446189684804","20151030_162045","0.561"
"2015/10/30 16:20:45","7","-0.737","9.687","363","139.928617","patrol01","37.490373","1446189684910","20151030_162045","0.418"
"2015/10/30 16:20:45","7","-0.762","9.628","364","139.928617","patrol01","37.490374","1446189685005","20151030_162045","0.227"
"2015/10/30 16:20:45","7","-0.815","9.615","365","139.928617","patrol01","37.490375","1446189685104","20151030_162045","0.256"
"2015/10/30 16:20:45","7","-0.515","9.819","366","139.928616","patrol01","37.490376","1446189685207","20151030_162045","0.37"
"2015/10/30 16:20:45","7","0.056","10.003","367","139.928616","patrol01","37.490376","1446189685306","20151030_162045","0.618"
"2015/10/30 16:20:45","7","0.21","10.018","368","139.928616","patrol01","37.490377","1446189685408","20151030_162045","0.685"
"2015/10/30 16:20:45","7","0.029","9.746","369","139.928616","patrol01","37.490378","1446189685504","20151030_162045","0.731"
"2015/10/30 16:20:45","7","-0.307","9.483","370","139.928616","patrol01","37.490378","1446189685604","20151030_162045","0.678"
"2015/10/30 16:20:45","7","-0.614","9.485","371","139.928616","patrol01","37.490379","1446189685705","20151030_162045","0.608"
"2015/10/30 16:20:45","7","-0.819","9.616","372","139.928613","patrol01","37.490379","1446189685806","20151030_162045","0.509"
"2015/10/30 16:20:45","7","-1.028","9.554","373","139.928609","patrol01","37.490378","1446189685907","20151030_162045","0.398"
"2015/10/30 16:20:45","7","-1.086","9.544","374","139.928606","patrol01","37.490378","1446189686007","20151030_162045","0.258"
"2015/10/30 16:20:45","7","-1.051","9.619","375","139.928603","patrol01","37.490377","1446189686108","20151030_162045","0.236"
"2015/10/30 16:20:45","7","-1.007","9.62","376","139.9286","patrol01","37.490377","1446189686204","20151030_162045","0.3"
"2015/10/30 16:20:45","7","-0.9","9.647","377","139.928597","patrol01","37.490377","1446189686304","20151030_162045","0.356"
"2015/10/30 16:20:45","7","-0.793","9.662","378","139.928593","patrol01","37.490376","1446189686405","20151030_162045","0.363"
"2015/10/30 16:20:45","7","-0.684","9.684","379","139.92859","patrol01","37.490376","1446189686506","20151030_162045","0.366"
"2015/10/30 16:20:45","7","-0.629","9.708","380","139.928587","patrol01","37.490375","1446189686606","20151030_162045","0.397"
"2015/10/30 16:20:45","7","-0.544","9.808","381","139.928584","patrol01","37.490375","1446189686707","20151030_162045","0.404"
"2015/10/30 16:20:45","7","-0.082","9.943","382","139.928581","patrol01","37.490374","1446189686808","20151030_162045","0.353"
"2015/10/30 16:20:45","7","0.486","10.034","383","139.928578","patrol01","37.490374","1446189686904","20151030_162045","0.284"
"2015/10/30 16:20:45","7","0.742","9.959","384","139.928575","patrol01","37.490373","1446189687004","20151030_162045","0.271"
"2015/10/30 16:20:45","7","0.563","9.773","385","139.928572","patrol01","37.490373","1446189687105","20151030_162045","0.168"
"2015/10/30 16:20:45","7","0.15","9.691","386","139.928569","patrol01","37.490372","1446189687206","20151030_162045","0.137"
"2015/10/30 16:20:45","7","-0.154","9.648","387","139.928566","patrol01","37.490372","1446189687306","20151030_162045","0.157"
"2015/10/30 16:20:45","7","-0.334","9.694","388","139.928563","patrol01","37.490371","1446189687407","20151030_162045","0.218"
"2015/10/30 16:20:45","7","-0.52","9.704","389","139.928561","patrol01","37.490371","1446189687508","20151030_162045","0.229"
"2015/10/30 16:20:45","7","-0.717","9.678","390","139.928558","patrol01","37.49037","1446189687609","20151030_162045","0.249"
"2015/10/30 16:20:45","7","-0.835","9.685","391","139.928555","patrol01","37.49037","1446189687704","20151030_162045","0.255"
"2015/10/30 16:20:45","7","-0.912","9.677","392","139.928554","patrol01","37.49037","1446189687805","20151030_162045","0.253"
"2015/10/30 16:20:45","7","-0.991","9.668","393","139.928553","patrol01","37.490371","1446189687906","20151030_162045","0.28"
"2015/10/30 16:20:45","7","-1.064","9.668","394","139.928552","patrol01","37.490371","1446189688006","20151030_162045","0.308"
"2015/10/30 16:20:45","7","-1.092","9.657","395","139.928551","patrol01","37.490371","1446189688107","20151030_162045","0.305"
"2015/10/30 16:20:45","7","-1.079","9.69","396","139.92855","patrol01","37.490372","1446189688208","20151030_162045","0.306"
"2015/10/30 16:20:45","7","-1.065","9.663","397","139.92855","patrol01","37.490372","1446189688308","20151030_162045","0.273"
"2015/10/30 16:20:45","7","-1.034","9.649","398","139.928549","patrol01","37.490372","1446189688404","20151030_162045","0.265"
"2015/10/30 16:20:45","7","-1.067","9.69","399","139.928548","patrol01","37.490372","1446189688505","20151030_162045","0.309"
"2015/10/30 16:20:45","7","-1.112","9.664","400","139.928547","patrol01","37.490373","1446189688605","20151030_162045","0.328"
"2015/10/30 16:20:45","6","-1.111","9.663","401","139.928546","patrol01","37.490373","1446189688706","20151030_162045","0.311"
"2015/10/30 16:20:45","6","-1.05","9.679","402","139.928546","patrol01","37.490373","1446189688807","20151030_162045","0.285"
"2015/10/30 16:20:45","6","-0.995","9.682","403","139.928545","patrol01","37.490374","1446189688908","20151030_162045","0.272"
"2015/10/30 16:20:45","6","-0.986","9.652","404","139.928545","patrol01","37.490374","1446189689008","20151030_162045","0.267"
"2015/10/30 16:20:45","6","-0.987","9.675","405","139.928545","patrol01","37.490374","1446189689104","20151030_162045","0.31"
"2015/10/30 16:20:45","6","-0.973","9.699","406","139.928544","patrol01","37.490375","1446189689205","20151030_162045","0.322"
"2015/10/30 16:20:45","6","-0.938","9.669","407","139.928544","patrol01","37.490375","1446189689305","20151030_162045","0.284"
"2015/10/30 16:20:45","6","-0.899","9.692","408","139.928544","patrol01","37.490375","1446189689406","20151030_162045","0.274"
"2015/10/30 16:20:45","6","-0.893","9.682","409","139.928544","patrol01","37.490375","1446189689507","20151030_162045","0.311"
"2015/10/30 16:20:45","6","-0.935","9.678","410","139.928543","patrol01","37.490376","1446189689608","20151030_162045","0.276"
"2015/10/30 16:20:45","6","-0.817","9.804","411","139.928543","patrol01","37.490376","1446189689708","20151030_162045","0.26"
"2015/10/30 16:20:45","6","-0.716","9.862","412","139.928543","patrol01","37.490376","1446189689804","20151030_162045","0.323"
"2015/10/30 16:20:45","6","-0.694","9.737","413","139.928542","patrol01","37.490377","1446189689905","20151030_162045","0.392"
"2015/10/30 16:20:45","6","-0.646","9.738","414","139.928542","patrol01","37.490377","1446189690005","20151030_162045","0.424"
"2015/10/30 16:20:45","6","-0.496","9.73","415","139.928542","patrol01","37.490377","1446189690106","20151030_162045","0.221"
"2015/10/30 16:20:45","6","-0.428","9.736","416","139.928541","patrol01","37.490378","1446189690207","20151030_162045","0.125"
"2015/10/30 16:20:45","6","-0.41","9.69","417","139.928541","patrol01","37.490378","1446189690307","20151030_162045","0.215"
"2015/10/30 16:20:45","6","-0.257","9.7","418","139.928541","patrol01","37.490378","1446189690408","20151030_162045","0.422"
"2015/10/30 16:20:45","6","0.024","9.779","419","139.928541","patrol01","37.490378","1446189690504","20151030_162045","0.497"
"2015/10/30 16:20:45","6","0.148","9.773","420","139.92854","patrol01","37.490379","1446189690605","20151030_162045","0.414"
"2015/10/30 16:20:45","6","0.045","9.605","421","139.92854","patrol01","37.490379","1446189690705","20151030_162045","0.409"
"2015/10/30 16:20:45","6","-0.085","9.676","422","139.92854","patrol01","37.490379","1446189690806","20151030_162045","0.389"
"2015/10/30 16:20:45","6","-0.234","9.737","423","139.92854","patrol01","37.490379","1446189690907","20151030_162045","0.295"
"2015/10/30 16:20:45","6","-0.391","9.686","424","139.92854","patrol01","37.490379","1446189691007","20151030_162045","0.305"
"2015/10/30 16:20:45","6","-0.461","9.671","425","139.92854","patrol01","37.490379","1446189691108","20151030_162045","0.362"
"2015/10/30 16:20:45","6","-0.493","9.696","426","139.92854","patrol01","37.490379","1446189691204","20151030_162045","0.349"
"2015/10/30 16:20:45","6","-0.54","9.688","427","139.92854","patrol01","37.490379","1446189691304","20151030_162045","0.322"
"2015/10/30 16:20:45","6","-0.589","9.692","428","139.92854","patrol01","37.490379","1446189691405","20151030_162045","0.326"
"2015/10/30 16:20:45","6","-0.694","9.684","429","139.92854","patrol01","37.490379","1446189691506","20151030_162045","0.329"
"2015/10/30 16:20:45","6","-0.8","9.663","430","139.92854","patrol01","37.490379","1446189691607","20151030_162045","0.353"
"2015/10/30 16:20:45","6","-0.807","9.694","431","139.92854","patrol01","37.490379","1446189691707","20151030_162045","0.372"
"2015/10/30 16:20:45","6","-0.783","9.696","432","139.92854","patrol01","37.49038","1446189691808","20151030_162045","0.347"
"2015/10/30 16:20:45","6","-0.806","9.687","433","139.92854","patrol01","37.49038","1446189691904","20151030_162045","0.34"
"2015/10/30 16:20:45","6","-0.829","9.685","434","139.928539","patrol01","37.490381","1446189692004","20151030_162045","0.34"
"2015/10/30 16:20:45","6","-0.815","9.7","435","139.928539","patrol01","37.490382","1446189692105","20151030_162045","0.348"
"2015/10/30 16:20:45","6","-0.803","9.681","436","139.928539","patrol01","37.490383","1446189692206","20151030_162045","0.337"
"2015/10/30 16:20:45","6","-0.828","9.704","437","139.928539","patrol01","37.490383","1446189692307","20151030_162045","0.351"
"2015/10/30 16:20:45","6","-0.828","9.698","438","139.928539","patrol01","37.490384","1446189692407","20151030_162045","0.351"
"2015/10/30 16:20:45","6","-0.813","9.708","439","139.928538","patrol01","37.490385","1446189692508","20151030_162045","0.356"
"2015/10/30 16:20:45","6","-0.816","9.696","440","139.928538","patrol01","37.490385","1446189692604","20151030_162045","0.346"
"2015/10/30 16:20:45","6","-0.834","9.692","441","139.928538","patrol01","37.490386","1446189692704","20151030_162045","0.351"
"2015/10/30 16:20:45","6","-0.82","9.688","442","139.928538","patrol01","37.490386","1446189692805","20151030_162045","0.346"
"2015/10/30 16:20:45","6","-0.814","9.695","443","139.928538","patrol01","37.490387","1446189692906","20151030_162045","0.345"
"2015/10/30 16:20:45","6","-0.823","9.693","444","139.928538","patrol01","37.490387","1446189693006","20151030_162045","0.337"
"2015/10/30 16:20:45","6","-0.82","9.688","445","139.928538","patrol01","37.490387","1446189693107","20151030_162045","0.34"
"2015/10/30 16:20:45","6","-0.802","9.699","446","139.928538","patrol01","37.490388","1446189693208","20151030_162045","0.354"
"2015/10/30 16:20:45","6","-0.813","9.692","447","139.928538","patrol01","37.490388","1446189693304","20151030_162045","0.349"
"2015/10/30 16:20:45","6","-0.846","9.696","448","139.928538","patrol01","37.490388","1446189693404","20151030_162045","0.344"
"2015/10/30 16:20:45","6","-0.885","9.688","449","139.928538","patrol01","37.490388","1446189693505","20151030_162045","0.34"
"2015/10/30 16:20:45","6","-0.942","9.675","450","139.928538","patrol01","37.490389","1446189693606","20151030_162045","0.364"
"2015/10/30 16:20:45","6","-0.986","9.683","451","139.928538","patrol01","37.490389","1446189693706","20151030_162045","0.365"
"2015/10/30 16:20:45","6","-1.012","9.695","452","139.928538","patrol01","37.490389","1446189693807","20151030_162045","0.373"
"2015/10/30 16:20:45","6","-1.037","9.688","453","139.928538","patrol01","37.490389","1446189693908","20151030_162045","0.366"
"2015/10/30 16:20:45","6","-1.078","9.698","454","139.928538","patrol01","37.490389","1446189694008","20151030_162045","0.37"
"2015/10/30 16:20:45","6","-1.126","9.723","455","139.928538","patrol01","37.490389","1446189694104","20151030_162045","0.364"
"2015/10/30 16:20:45","6","-1.198","9.711","456","139.928537","patrol01","37.490389","1446189694205","20151030_162045","0.334"
"2015/10/30 16:20:45","6","-1.244","9.673","457","139.928537","patrol01","37.490389","1446189694306","20151030_162045","0.33"
"2015/10/30 16:20:45","6","-1.282","9.67","458","139.928537","patrol01","37.490389","1446189694406","20151030_162045","0.326"
"2015/10/30 16:20:45","6","-1.308","9.685","459","139.928537","patrol01","37.490389","1446189694507","20151030_162045","0.314"
"2015/10/30 16:20:45","6","-1.313","9.667","460","139.928537","patrol01","37.490389","1446189694608","20151030_162045","0.298"
"2015/10/30 16:20:45","6","-1.347","9.681","461","139.928537","patrol01","37.490389","1446189694708","20151030_162045","0.294"
"2015/10/30 16:20:45","6","-1.374","9.677","462","139.928537","patrol01","37.490389","1446189694804","20151030_162045","0.278"
"2015/10/30 16:20:45","6","-1.437","9.661","463","139.928537","patrol01","37.490389","1446189694905","20151030_162045","0.259"
"2015/10/30 16:20:45","6","-1.467","9.633","464","139.928537","patrol01","37.490389","1446189695006","20151030_162045","0.29"
"2015/10/30 16:20:45","6","-1.494","9.644","465","139.928537","patrol01","37.490389","1446189695106","20151030_162045","0.297"
"2015/10/30 16:20:45","6","-1.531","9.66","466","139.928538","patrol01","37.49039","1446189695207","20151030_162045","0.312"
"2015/10/30 16:20:45","6","-1.574","9.672","467","139.928538","patrol01","37.49039","1446189695308","20151030_162045","0.296"
"2015/10/30 16:20:45","6","-1.469","9.66","468","139.928538","patrol01","37.49039","1446189695408","20151030_162045","0.327"
"2015/10/30 16:20:45","6","-1.333","9.744","469","139.928538","patrol01","37.49039","1446189695504","20151030_162045","0.485"
"2015/10/30 16:20:45","6","-1.135","9.823","470","139.928538","patrol01","37.49039","1446189695605","20151030_162045","0.264"
"2015/10/30 16:20:45","6","-1.062","9.682","471","139.928538","patrol01","37.49039","1446189695705","20151030_162045","-0.022"
"2015/10/30 16:20:45","6","-1.193","9.529","472","139.928538","patrol01","37.49039","1446189695806","20151030_162045","-0.021"
"2015/10/30 16:20:45","6","-1.355","9.585","473","139.928538","patrol01","37.49039","1446189695907","20151030_162045","0.114"
"2015/10/30 16:20:45","6","-1.494","9.677","474","139.928538","patrol01","37.49039","1446189696008","20151030_162045","0.16"
"2015/10/30 16:20:45","6","-1.78","9.566","475","139.928538","patrol01","37.49039","1446189696108","20151030_162045","0.146"
"2015/10/30 16:20:45","6","-2.351","9.231","476","139.928539","patrol01","37.49039","1446189696204","20151030_162045","0.116"
"2015/10/30 16:20:45","6","-2.832","8.901","477","139.928539","patrol01","37.49039","1446189696305","20151030_162045","0.144"
"2015/10/30 16:20:45","6","-2.518","9.578","478","139.928539","patrol01","37.49039","1446189696405","20151030_162045","0.272"
"2015/10/30 16:20:45","6","-2.098","10.44","479","139.928539","patrol01","37.49039","1446189696506","20151030_162045","0.34"
"2015/10/30 16:20:45","6","-2.005","10.418","480","139.928539","patrol01","37.49039","1446189696607","20151030_162045","0.242"
"2015/10/30 16:20:45","6","-1.943","9.884","481","139.928539","patrol01","37.49039","1446189696707","20151030_162045","0.038"
"2015/10/30 16:20:45","6","-1.816","9.453","482","139.92854","patrol01","37.490391","1446189696808","20151030_162045","-0.159"
"2015/10/30 16:20:45","6","-1.476","9.526","483","139.928541","patrol01","37.490391","1446189696904","20151030_162045","-0.283"
"2015/10/30 16:20:45","6","-1.307","9.87","484","139.928542","patrol01","37.490392","1446189697005","20151030_162045","-0.296"
"2015/10/30 16:20:45","6","-1.704","9.554","485","139.928543","patrol01","37.490392","1446189697105","20151030_162045","-0.271"
"2015/10/30 16:20:45","6","-2.023","9.22","486","139.928544","patrol01","37.490393","1446189697206","20151030_162045","-0.308"
"2015/10/30 16:20:45","6","-2.092","9.354","487","139.928544","patrol01","37.490394","1446189697307","20151030_162045","-0.332"
"2015/10/30 16:20:45","6","-2.004","9.579","488","139.928545","patrol01","37.490394","1446189697407","20151030_162045","-0.449"
"2015/10/30 16:20:45","6","-1.944","9.823","489","139.928546","patrol01","37.490395","1446189697508","20151030_162045","-0.526"
"2015/10/30 16:20:45","6","-1.875","9.831","490","139.928547","patrol01","37.490395","1446189697604","20151030_162045","-0.606"
"2015/10/30 16:20:45","5","-1.717","9.655","491","139.928548","patrol01","37.490396","1446189697705","20151030_162045","-0.874"
"2015/10/30 16:20:45","5","-2.072","9.504","492","139.92855","patrol01","37.490397","1446189697805","20151030_162045","-1.427"
"2015/10/30 16:20:45","5","-2.119","9.626","493","139.928552","patrol01","37.490399","1446189697906","20151030_162045","-1.398"
"2015/10/30 16:20:45","5","-1.789","9.807","494","139.928554","patrol01","37.4904","1446189698007","20151030_162045","-1.209"
"2015/10/30 16:20:45","5","-1.374","9.741","495","139.928556","patrol01","37.490402","1446189698107","20151030_162045","-1.267"
"2015/10/30 16:20:45","5","-1.096","9.691","496","139.928558","patrol01","37.490403","1446189698208","20151030_162045","-1.123"
"2015/10/30 16:20:45","5","-1.008","9.675","497","139.928559","patrol01","37.490404","1446189698304","20151030_162045","-1.076"
"2015/10/30 16:20:45","5","-1.172","9.598","498","139.928561","patrol01","37.490406","1446189698404","20151030_162045","-1.307"
"2015/10/30 16:20:45","5","-1.285","9.658","499","139.928563","patrol01","37.490407","1446189698505","20151030_162045","-1.542"
"2015/10/30 16:20:45","5","-1.319","9.753","500","139.928565","patrol01","37.490409","1446189698606","20151030_162045","-1.529"
"2015/10/30 16:20:45","5","-1.325","9.617","501","139.928567","patrol01","37.49041","1446189698706","20151030_162045","-1.379"
"2015/10/30 16:20:45","5","-1.33","9.492","502","139.928571","patrol01","37.490411","1446189698807","20151030_162045","-1.135"
"2015/10/30 16:20:45","5","-1.39","9.444","503","139.928574","patrol01","37.490413","1446189698908","20151030_162045","-1.152"
"2015/10/30 16:20:45","5","-1.347","9.503","504","139.928578","patrol01","37.490414","1446189699009","20151030_162045","-1.465"
"2015/10/30 16:20:45","5","-1.213","9.701","505","139.928581","patrol01","37.490415","1446189699104","20151030_162045","-1.818"
"2015/10/30 16:20:45","5","-1.222","9.687","506","139.928585","patrol01","37.490417","1446189699210","20151030_162045","-2.188"
"2015/10/30 16:20:45","5","-1.139","9.736","507","139.928588","patrol01","37.490418","1446189699306","20151030_162045","-2.126"
"2015/10/30 16:20:45","5","-1.042","9.87","508","139.928592","patrol01","37.490419","1446189699405","20151030_162045","-2.04"
"2015/10/30 16:20:45","5","-1.038","9.614","509","139.928595","patrol01","37.490421","1446189699507","20151030_162045","-1.893"
"2015/10/30 16:20:45","5","-1.036","9.439","510","139.928599","patrol01","37.490422","1446189699606","20151030_162045","-1.82"
"2015/10/30 16:20:45","5","-1.161","9.319","511","139.928602","patrol01","37.490423","1446189699708","20151030_162045","-1.657"
"2015/10/30 16:20:45","5","-1.202","9.459","512","139.928605","patrol01","37.490424","1446189699804","20151030_162045","-1.633"
"2015/10/30 16:20:45","5","-1.171","9.814","513","139.928608","patrol01","37.490425","1446189699905","20151030_162045","-1.591"
"2015/10/30 16:20:45","5","-1.161","9.924","514","139.92861","patrol01","37.490426","1446189700006","20151030_162045","-1.678"
"2015/10/30 16:20:45","5","-1.078","9.93","515","139.928613","patrol01","37.490427","1446189700106","20151030_162045","-1.737"
"2015/10/30 16:20:45","5","-1.008","9.943","516","139.928616","patrol01","37.490428","1446189700207","20151030_162045","-1.671"
"2015/10/30 16:20:45","5","-0.961","9.673","517","139.928618","patrol01","37.490428","1446189700308","20151030_162045","-1.432"
"2015/10/30 16:20:45","5","-1.109","9.435","518","139.928621","patrol01","37.490429","1446189700408","20151030_162045","-1.087"
"2015/10/30 16:20:45","5","-1.27","9.428","519","139.928624","patrol01","37.49043","1446189700504","20151030_162045","-0.876"
"2015/10/30 16:20:45","5","-1.226","9.706","520","139.928626","patrol01","37.490431","1446189700605","20151030_162045","-0.891"
"2015/10/30 16:20:45","6","-1.31","9.772","521","139.928629","patrol01","37.490432","1446189700706","20151030_162045","-0.952"
"2015/10/30 16:20:45","6","-1.398","9.73","522","139.928637","patrol01","37.490432","1446189700806","20151030_162045","-0.836"
"2015/10/30 16:20:45","6","-1.34","9.575","523","139.928645","patrol01","37.490432","1446189700907","20151030_162045","-0.543"
"2015/10/30 16:20:45","6","-1.106","9.72","524","139.928653","patrol01","37.490431","1446189701008","20151030_162045","-0.154"
"2015/10/30 16:20:45","6","-1.233","9.878","525","139.928661","patrol01","37.490431","1446189701108","20151030_162045","0.114"
"2015/10/30 16:20:45","6","-1.299","9.604","526","139.928669","patrol01","37.490431","1446189701204","20151030_162045","0.107"
"2015/10/30 16:20:45","6","-1.226","9.654","527","139.928677","patrol01","37.490431","1446189701305","20151030_162045","-0.022"
"2015/10/30 16:20:45","6","-1.136","9.714","528","139.928685","patrol01","37.490431","1446189701405","20151030_162045","-0.147"
"2015/10/30 16:20:45","6","-1.148","9.636","529","139.928693","patrol01","37.49043","1446189701506","20151030_162045","-0.202"
"2015/10/30 16:20:45","6","-1.211","9.76","530","139.928701","patrol01","37.49043","1446189701607","20151030_162045","-0.145"
"2015/10/30 16:20:45","7","-1.079","9.666","531","139.928708","patrol01","37.49043","1446189701708","20151030_162045","0.011"
"2015/10/30 16:20:45","7","-1.099","9.597","532","139.928713","patrol01","37.49043","1446189701808","20151030_162045","0.2"
"2015/10/30 16:20:45","7","-1.186","9.596","533","139.928717","patrol01","37.490429","1446189701904","20151030_162045","0.357"
"2015/10/30 16:20:45","7","-1.164","9.641","534","139.928722","patrol01","37.490429","1446189702005","20151030_162045","0.387"
"2015/10/30 16:20:45","7","-1.095","9.692","535","139.928727","patrol01","37.490429","1446189702105","20151030_162045","0.277"
"2015/10/30 16:20:45","7","-1.067","9.662","536","139.928731","patrol01","37.490428","1446189702206","20151030_162045","0.177"
"2015/10/30 16:20:45","7","-1.168","9.527","537","139.928736","patrol01","37.490428","1446189702307","20151030_162045","0.095"
"2015/10/30 16:20:45","7","-1.141","9.61","538","139.92874","patrol01","37.490428","1446189702407","20151030_162045","0.057"
"2015/10/30 16:20:45","7","-1.141","9.63","539","139.928745","patrol01","37.490428","1446189702508","20151030_162045","-0.035"
"2015/10/30 16:20:45","7","-1.128","9.743","540","139.928749","patrol01","37.490427","1446189702604","20151030_162045","-0.03"
"2015/10/30 16:20:45","5","-1.185","9.74","541","139.928754","patrol01","37.490427","1446189702705","20151030_162045","0.144"
"2015/10/30 16:20:45","5","-1.137","9.653","542","139.928761","patrol01","37.490427","1446189702805","20151030_162045","0.129"
"2015/10/30 16:20:45","5","-1.177","9.581","543","139.928768","patrol01","37.490426","1446189702906","20151030_162045","0.058"
"2015/10/30 16:20:45","5","-1.237","9.62","544","139.928775","patrol01","37.490426","1446189703007","20151030_162045","0.048"
"2015/10/30 16:20:45","5","-1.282","9.713","545","139.928782","patrol01","37.490425","1446189703107","20151030_162045","0.203"
"2015/10/30 16:20:45","5","-1.209","9.77","546","139.928789","patrol01","37.490425","1446189703208","20151030_162045","0.303"
"2015/10/30 16:20:45","5","-1.203","9.629","547","139.928795","patrol01","37.490425","1446189703304","20151030_162045","0.21"
"2015/10/30 16:20:45","5","-1.204","9.694","548","139.928802","patrol01","37.490424","1446189703405","20151030_162045","0.075"
"2015/10/30 16:20:45","5","-1.221","9.744","549","139.928809","patrol01","37.490424","1446189703505","20151030_162045","0.069"
"2015/10/30 16:20:45","5","-1.257","9.658","550","139.928816","patrol01","37.490423","1446189703606","20151030_162045","0.041"
"2015/10/30 16:20:45","5","-1.254","9.799","551","139.928822","patrol01","37.490423","1446189703707","20151030_162045","0.088"
"2015/10/30 16:20:45","5","-1.248","9.75","552","139.928828","patrol01","37.490422","1446189703807","20151030_162045","0.233"
"2015/10/30 16:20:45","5","-1.252","9.673","553","139.928834","patrol01","37.490422","1446189703908","20151030_162045","0.126"
"2015/10/30 16:20:45","5","-1.257","9.666","554","139.928839","patrol01","37.490421","1446189704004","20151030_162045","0.043"
"2015/10/30 16:20:45","5","-1.264","9.698","555","139.928845","patrol01","37.490421","1446189704104","20151030_162045","0.13"
"2015/10/30 16:20:45","5","-1.256","9.62","556","139.928851","patrol01","37.49042","1446189704205","20151030_162045","0.069"
"2015/10/30 16:20:45","5","-1.046","10.06","557","139.928857","patrol01","37.49042","1446189704306","20151030_162045","0.214"
"2015/10/30 16:20:45","5","-1.174","9.84","558","139.928863","patrol01","37.490419","1446189704407","20151030_162045","0.156"
"2015/10/30 16:20:45","5","-1.235","9.642","559","139.928869","patrol01","37.490419","1446189704507","20151030_162045","0.216"
"2015/10/30 16:20:45","5","-1.218","9.657","560","139.928875","patrol01","37.490418","1446189704608","20151030_162045","0.313"
"2015/10/30 16:20:45","4","-1.21","9.756","561","139.92888","patrol01","37.490418","1446189704704","20151030_162045","0.252"
"2015/10/30 16:20:45","4","-1.334","9.728","562","139.928886","patrol01","37.490417","1446189704804","20151030_162045","0.231"
"2015/10/30 16:20:45","4","-1.068","9.668","563","139.928891","patrol01","37.490417","1446189704905","20151030_162045","-0.001"
"2015/10/30 16:20:45","4","-0.988","9.631","564","139.928897","patrol01","37.490416","1446189705006","20151030_162045","0.019"
"2015/10/30 16:20:45","4","-0.951","9.704","565","139.928903","patrol01","37.490415","1446189705107","20151030_162045","0.046"
"2015/10/30 16:20:45","4","-0.91","9.762","566","139.928908","patrol01","37.490415","1446189705207","20151030_162045","0.239"
"2015/10/30 16:20:45","4","-0.823","9.653","567","139.928914","patrol01","37.490414","1446189705308","20151030_162045","0.175"
"2015/10/30 16:20:45","4","-0.767","9.593","568","139.928919","patrol01","37.490414","1446189705404","20151030_162045","0.131"
"2015/10/30 16:20:45","4","-0.865","9.463","569","139.928925","patrol01","37.490413","1446189705504","20151030_162045","0.042"
"2015/10/30 16:20:45","4","-0.81","9.657","570","139.92893","patrol01","37.490412","1446189705605","20151030_162045","0.059"
"2015/10/30 16:20:45","4","-0.731","9.85","571","139.928936","patrol01","37.490412","1446189705706","20151030_162045","-0.034"
"2015/10/30 16:20:45","4","-0.714","9.745","572","139.928942","patrol01","37.490411","1446189705806","20151030_162045","0.046"
"2015/10/30 16:20:45","4","-0.747","9.622","573","139.928947","patrol01","37.490411","1446189705907","20151030_162045","0.215"
"2015/10/30 16:20:45","4","-0.734","9.566","574","139.928953","patrol01","37.49041","1446189706008","20151030_162045","0.352"
"2015/10/30 16:20:45","4","-0.815","9.542","575","139.928959","patrol01","37.49041","1446189706104","20151030_162045","0.373"
"2015/10/30 16:20:45","4","-0.832","9.798","576","139.928964","patrol01","37.490409","1446189706204","20151030_162045","0.231"
"2015/10/30 16:20:45","4","-0.782","9.889","577","139.92897","patrol01","37.490409","1446189706305","20151030_162045","0.0"
"2015/10/30 16:20:45","4","-0.767","9.839","578","139.928976","patrol01","37.490408","1446189706406","20151030_162045","0.088"
"2015/10/30 16:20:45","4","-0.769","9.685","579","139.928981","patrol01","37.490408","1446189706506","20151030_162045","0.13"
"2015/10/30 16:20:45","4","-0.78","9.624","580","139.928987","patrol01","37.490407","1446189706607","20151030_162045","0.393"
"2015/10/30 16:20:45","4","-0.863","9.618","581","139.928993","patrol01","37.490407","1446189706708","20151030_162045","0.311"
"2015/10/30 16:20:45","4","-0.93","9.67","582","139.928998","patrol01","37.490406","1446189706808","20151030_162045","0.119"
"2015/10/30 16:20:45","4","-0.882","9.853","583","139.929003","patrol01","37.490406","1446189706904","20151030_162045","0.164"
"2015/10/30 16:20:45","4","-0.857","9.732","584","139.929008","patrol01","37.490405","1446189707005","20151030_162045","0.127"
"2015/10/30 16:20:45","4","-0.865","9.647","585","139.929013","patrol01","37.490404","1446189707106","20151030_162045","0.134"
"2015/10/30 16:20:45","4","-0.875","9.714","586","139.929018","patrol01","37.490403","1446189707206","20151030_162045","0.245"
"2015/10/30 16:20:45","4","-0.925","9.572","587","139.929024","patrol01","37.490403","1446189707307","20151030_162045","0.127"
"2015/10/30 16:20:45","4","-0.941","9.557","588","139.929029","patrol01","37.490402","1446189707408","20151030_162045","0.139"
"2015/10/30 16:20:45","4","-0.924","9.686","589","139.929034","patrol01","37.490401","1446189707508","20151030_162045","0.095"
"2015/10/30 16:20:45","4","-0.9","9.737","590","139.929039","patrol01","37.490401","1446189707604","20151030_162045","0.132"
"2015/10/30 16:20:45","5","-0.912","9.605","591","139.929044","patrol01","37.4904","1446189707705","20151030_162045","0.231"
"2015/10/30 16:20:45","5","-0.84","9.652","592","139.929051","patrol01","37.4904","1446189707806","20151030_162045","0.18"
"2015/10/30 16:20:45","5","-0.832","9.733","593","139.929057","patrol01","37.4904","1446189707906","20151030_162045","0.098"
"2015/10/30 16:20:45","5","-0.845","9.715","594","139.929064","patrol01","37.4904","1446189708007","20151030_162045","0.149"
"2015/10/30 16:20:45","5","-0.874","9.678","595","139.92907","patrol01","37.4904","1446189708108","20151030_162045","0.1"
"2015/10/30 16:20:45","5","-0.82","9.788","596","139.929077","patrol01","37.490399","1446189708208","20151030_162045","0.11"
"2015/10/30 16:20:45","5","-0.886","9.581","597","139.929083","patrol01","37.490399","1446189708304","20151030_162045","0.086"
"2015/10/30 16:20:45","5","-0.926","9.54","598","139.929089","patrol01","37.490399","1446189708405","20151030_162045","0.002"
"2015/10/30 16:20:45","5","-0.941","9.634","599","139.929096","patrol01","37.490399","1446189708505","20151030_162045","-0.003"
"2015/10/30 16:20:45","5","-0.904","9.718","600","139.929102","patrol01","37.490399","1446189708606","20151030_162045","0.028"
"2015/10/30 16:20:45","5","-0.88","9.724","601","139.929109","patrol01","37.490399","1446189708707","20151030_162045","0.049"
"2015/10/30 16:20:45","5","-0.893","9.585","602","139.929114","patrol01","37.490399","1446189708808","20151030_162045","0.174"
"2015/10/30 16:20:45","5","-0.828","9.675","603","139.92912","patrol01","37.490398","1446189708908","20151030_162045","0.169"
"2015/10/30 16:20:45","5","-0.855","9.81","604","139.929125","patrol01","37.490398","1446189709004","20151030_162045","0.093"
"2015/10/30 16:20:45","5","-1.057","9.599","605","139.929131","patrol01","37.490398","1446189709105","20151030_162045","0.04"
"2015/10/30 16:20:45","5","-1.144","9.598","606","139.929136","patrol01","37.490397","1446189709205","20151030_162045","-0.012"
"2015/10/30 16:20:45","5","-1.157","9.656","607","139.929142","patrol01","37.490397","1446189709306","20151030_162045","0.085"
"2015/10/30 16:20:45","5","-1.229","9.644","608","139.929148","patrol01","37.490397","1446189709407","20151030_162045","0.263"
"2015/10/30 16:20:45","5","-1.305","9.615","609","139.929153","patrol01","37.490397","1446189709508","20151030_162045","0.459"
"2015/10/30 16:20:45","5","-1.22","9.634","610","139.929159","patrol01","37.490396","1446189709608","20151030_162045","0.296"
"2015/10/30 16:20:45","3","-1.238","9.662","611","139.929164","patrol01","37.490396","1446189709704","20151030_162045","0.123"
"2015/10/30 16:20:45","3","-1.322","9.588","612","139.92917","patrol01","37.490395","1446189709805","20151030_162045","0.194"
"2015/10/30 16:20:45","3","-1.313","9.72","613","139.929176","patrol01","37.490395","1446189709905","20151030_162045","0.15"
"2015/10/30 16:20:45","3","-1.374","9.561","614","139.929181","patrol01","37.490394","1446189710006","20151030_162045","0.182"
"2015/10/30 16:20:45","3","-1.275","9.748","615","139.929187","patrol01","37.490394","1446189710107","20151030_162045","0.22"
"2015/10/30 16:20:45","3","-1.348","9.672","616","139.929192","patrol01","37.490393","1446189710207","20151030_162045","0.263"
"2015/10/30 16:20:45","3","-1.323","9.7","617","139.929198","patrol01","37.490393","1446189710308","20151030_162045","0.345"
"2015/10/30 16:20:45","3","-1.321","9.814","618","139.929203","patrol01","37.490392","1446189710404","20151030_162045","0.257"
"2015/10/30 16:20:45","3","-1.36","9.784","619","139.929209","patrol01","37.490392","1446189710504","20151030_162045","0.137"
"2015/10/30 16:20:45","3","-1.434","9.55","620","139.929215","patrol01","37.490391","1446189710605","20151030_162045","0.097"
"2015/10/30 16:20:45","4","-1.354","9.596","621","139.92922","patrol01","37.490391","1446189710706","20151030_162045","0.095"
"2015/10/30 16:20:45","4","-1.311","9.749","622","139.929229","patrol01","37.49039","1446189710807","20151030_162045","0.282"
"2015/10/30 16:20:45","4","-1.331","9.75","623","139.929238","patrol01","37.490389","1446189710907","20151030_162045","0.216"
"2015/10/30 16:20:45","4","-1.328","9.573","624","139.929247","patrol01","37.490388","1446189711008","20151030_162045","0.174"
"2015/10/30 16:20:45","4","-1.286","9.508","625","139.929255","patrol01","37.490387","1446189711104","20151030_162045","0.156"
"2015/10/30 16:20:45","4","-1.281","9.626","626","139.929264","patrol01","37.490386","1446189711204","20151030_162045","0.252"
"2015/10/30 16:20:45","4","-1.296","9.793","627","139.929273","patrol01","37.490385","1446189711305","20151030_162045","0.261"
"2015/10/30 16:20:45","4","-1.209","9.817","628","139.929282","patrol01","37.490384","1446189711406","20151030_162045","0.107"
"2015/10/30 16:20:45","4","-1.232","9.494","629","139.92929","patrol01","37.490383","1446189711506","20151030_162045","0.118"
"2015/10/30 16:20:45","4","-1.165","9.472","630","139.929299","patrol01","37.490382","1446189711607","20151030_162045","0.262"
"2015/10/30 16:20:45","6","-1.106","9.665","631","139.929308","patrol01","37.490381","1446189711708","20151030_162045","0.371"
"2015/10/30 16:20:45","6","-1.121","9.806","632","139.929314","patrol01","37.49038","1446189711804","20151030_162045","0.418"
"2015/10/30 16:20:45","6","-1.107","9.727","633","139.929321","patrol01","37.490379","1446189711904","20151030_162045","0.214"
"2015/10/30 16:20:45","6","-1.171","9.557","634","139.929328","patrol01","37.490378","1446189712005","20151030_162045","0.137"
"2015/10/30 16:20:45","6","-1.226","9.637","635","139.929334","patrol01","37.490377","1446189712106","20151030_162045","0.34"
"2015/10/30 16:20:45","6","-1.402","9.444","636","139.929341","patrol01","37.490376","1446189712206","20151030_162045","0.162"
"2015/10/30 16:20:45","6","-1.224","9.848","637","139.929348","patrol01","37.490376","1446189712307","20151030_162045","0.305"
"2015/10/30 16:20:45","6","-1.22","9.889","638","139.929355","patrol01","37.490375","1446189712408","20151030_162045","0.266"
"2015/10/30 16:20:45","6","-1.319","9.656","639","139.929361","patrol01","37.490374","1446189712509","20151030_162045","0.245"
"2015/10/30 16:20:45","6","-1.295","9.665","640","139.929368","patrol01","37.490373","1446189712604","20151030_162045","0.291"
"2015/10/30 16:20:45","4","-1.349","9.818","641","139.929374","patrol01","37.490372","1446189712705","20151030_162045","0.235"
"2015/10/30 16:20:45","4","-1.325","9.692","642","139.929382","patrol01","37.490371","1446189712806","20151030_162045","0.294"
"2015/10/30 16:20:45","4","-1.254","9.685","643","139.929389","patrol01","37.490371","1446189712906","20151030_162045","0.208"
"2015/10/30 16:20:45","4","-1.31","9.613","644","139.929396","patrol01","37.49037","1446189713007","20151030_162045","0.262"
"2015/10/30 16:20:45","4","-1.35","9.629","645","139.929403","patrol01","37.49037","1446189713108","20151030_162045","0.264"
"2015/10/30 16:20:45","4","-1.229","10.082","646","139.92941","patrol01","37.490369","1446189713208","20151030_162045","0.394"
"2015/10/30 16:20:45","4","-1.335","9.746","647","139.929417","patrol01","37.490368","1446189713309","20151030_162045","0.336"
"2015/10/30 16:20:45","4","-1.381","9.546","648","139.929424","patrol01","37.490368","1446189713405","20151030_162045","0.291"
"2015/10/30 16:20:45","4","-1.364","9.573","649","139.92943","patrol01","37.490367","1446189713504","20151030_162045","0.189"
"2015/10/30 16:20:45","4","-1.413","9.738","650","139.929438","patrol01","37.490367","1446189713606","20151030_162045","0.292"
"2015/10/30 16:20:45","4","-1.289","9.717","651","139.929445","patrol01","37.490366","1446189713705","20151030_162045","0.228"
"2015/10/30 16:20:45","4","-1.296","9.622","652","139.929452","patrol01","37.490365","1446189713808","20151030_162045","0.221"
"2015/10/30 16:20:45","4","-1.298","9.549","653","139.929459","patrol01","37.490365","1446189713907","20151030_162045","0.23"
"2015/10/30 16:20:45","4","-1.322","9.699","654","139.929466","patrol01","37.490364","1446189714004","20151030_162045","0.216"
"2015/10/30 16:20:45","4","-1.365","9.717","655","139.929473","patrol01","37.490364","1446189714105","20151030_162045","0.164"
"2015/10/30 16:20:45","4","-1.32","9.712","656","139.92948","patrol01","37.490363","1446189714205","20151030_162045","0.049"
"2015/10/30 16:20:45","4","-1.314","9.625","657","139.929487","patrol01","37.490362","1446189714306","20151030_162045","-0.025"
"2015/10/30 16:20:45","4","-1.411","9.544","658","139.929494","patrol01","37.490362","1446189714407","20151030_162045","0.15"
"2015/10/30 16:20:45","4","-1.25","9.625","659","139.929501","patrol01","37.490361","1446189714508","20151030_162045","0.386"
"2015/10/30 16:20:45","4","-1.292","9.662","660","139.929509","patrol01","37.490361","1446189714608","20151030_162045","0.288"
"2015/10/30 16:20:45","4","-1.268","9.594","661","139.929515","patrol01","37.49036","1446189714704","20151030_162045","0.093"
"2015/10/30 16:20:45","4","-1.156","9.842","662","139.929523","patrol01","37.49036","1446189714805","20151030_162045","0.129"
"2015/10/30 16:20:45","4","-1.256","9.811","663","139.92953","patrol01","37.49036","1446189714905","20151030_162045","0.24"
"2015/10/30 16:20:45","4","-1.397","9.422","664","139.929537","patrol01","37.490359","1446189715006","20151030_162045","0.2"
"2015/10/30 16:20:45","4","-1.33","9.392","665","139.929544","patrol01","37.490359","1446189715107","20151030_162045","0.219"
"2015/10/30 16:20:45","4","-1.298","9.647","666","139.929552","patrol01","37.490359","1446189715208","20151030_162045","0.272"
"2015/10/30 16:20:45","4","-1.2","9.7","667","139.929559","patrol01","37.490359","1446189715308","20151030_162045","0.195"
"2015/10/30 16:20:45","4","-1.145","9.564","668","139.929566","patrol01","37.490359","1446189715404","20151030_162045","0.098"
"2015/10/30 16:20:45","4","-1.173","9.53","669","139.929573","patrol01","37.490358","1446189715505","20151030_162045","0.18"
"2015/10/30 16:20:45","4","-1.169","9.739","670","139.92958","patrol01","37.490358","1446189715605","20151030_162045","0.236"
"2015/10/30 16:20:45","4","-1.213","9.835","671","139.929587","patrol01","37.490358","1446189715706","20151030_162045","0.287"
"2015/10/30 16:20:45","4","-1.321","9.496","672","139.929595","patrol01","37.490357","1446189715807","20151030_162045","0.374"
"2015/10/30 16:20:45","4","-1.265","9.528","673","139.929602","patrol01","37.490356","1446189715907","20151030_162045","0.433"
"2015/10/30 16:20:45","4","-1.28","9.726","674","139.929609","patrol01","37.490355","1446189716008","20151030_162045","0.367"
"2015/10/30 16:20:45","4","-1.214","9.834","675","139.929616","patrol01","37.490354","1446189716104","20151030_162045","0.35"
"2015/10/30 16:20:45","4","-1.168","9.654","676","139.929623","patrol01","37.490353","1446189716204","20151030_162045","0.278"
"2015/10/30 16:20:45","4","-1.25","9.457","677","139.92963","patrol01","37.490353","1446189716305","20151030_162045","0.208"
"2015/10/30 16:20:45","4","-1.176","9.84","678","139.929637","patrol01","37.490352","1446189716406","20151030_162045","0.354"
"2015/10/30 16:20:45","4","-1.135","9.896","679","139.929644","patrol01","37.490351","1446189716507","20151030_162045","0.311"
"2015/10/30 16:20:45","4","-1.255","9.444","680","139.929652","patrol01","37.49035","1446189716607","20151030_162045","0.286"
"2015/10/30 16:20:45","4","-1.196","9.408","681","139.929659","patrol01","37.490349","1446189716708","20151030_162045","0.298"
"2015/10/30 16:20:45","4","-1.303","9.602","682","139.929665","patrol01","37.490347","1446189716804","20151030_162045","0.363"
"2015/10/30 16:20:45","4","-1.174","9.723","683","139.929672","patrol01","37.490345","1446189716904","20151030_162045","0.411"
"2015/10/30 16:20:45","4","-1.116","9.73","684","139.929679","patrol01","37.490343","1446189717005","20151030_162045","0.42"
"2015/10/30 16:20:45","4","-1.166","9.639","685","139.929686","patrol01","37.490341","1446189717106","20151030_162045","0.34"
"2015/10/30 16:20:45","4","-1.189","9.86","686","139.929694","patrol01","37.490339","1446189717207","20151030_162045","0.255"
"2015/10/30 16:20:45","4","-1.258","9.723","687","139.929701","patrol01","37.490337","1446189717307","20151030_162045","0.133"
"2015/10/30 16:20:45","4","-1.329","9.565","688","139.929708","patrol01","37.490335","1446189717408","20151030_162045","0.135"
"2015/10/30 16:20:45","4","-1.296","9.555","689","139.929714","patrol01","37.490333","1446189717504","20151030_162045","0.138"
"2015/10/30 16:20:45","4","-1.322","9.775","690","139.929721","patrol01","37.490331","1446189717604","20151030_162045","0.176"
"2015/10/30 16:20:45","4","-1.164","9.765","691","139.929728","patrol01","37.490329","1446189717705","20151030_162045","0.026"
"2015/10/30 16:20:45","4","-1.201","9.657","692","139.929737","patrol01","37.490328","1446189717806","20151030_162045","0.176"
"2015/10/30 16:20:45","4","-1.311","9.65","693","139.929745","patrol01","37.490327","1446189717906","20151030_162045","0.217"
"2015/10/30 16:20:45","4","-1.486","9.419","694","139.929753","patrol01","37.490325","1446189718007","20151030_162045","0.149"
"2015/10/30 16:20:45","4","-1.338","9.765","695","139.929762","patrol01","37.490324","1446189718108","20151030_162045","0.163"
"2015/10/30 16:20:45","4","-1.366","9.677","696","139.929769","patrol01","37.490323","1446189718204","20151030_162045","0.066"
"2015/10/30 16:20:45","4","-1.154","9.935","697","139.929778","patrol01","37.490322","1446189718304","20151030_162045","0.129"
"2015/10/30 16:20:45","4","-1.14","9.952","698","139.929786","patrol01","37.490321","1446189718405","20151030_162045","0.026"
"2015/10/30 16:20:45","4","-1.328","9.592","699","139.929794","patrol01","37.490319","1446189718506","20151030_162045","0.158"
"2015/10/30 16:20:45","4","-1.338","9.427","700","139.929803","patrol01","37.490318","1446189718606","20151030_162045","0.246"
"2015/10/30 16:20:45","4","-1.342","9.809","701","139.929811","patrol01","37.490317","1446189718707","20151030_162045","0.252"
"2015/10/30 16:20:45","4","-1.287","9.827","702","139.929819","patrol01","37.490316","1446189718808","20151030_162045","0.215"
"2015/10/30 16:20:45","4","-1.278","9.552","703","139.929826","patrol01","37.490315","1446189718909","20151030_162045","0.101"
"2015/10/30 16:20:45","4","-1.26","9.584","704","139.929834","patrol01","37.490314","1446189719004","20151030_162045","0.214"
"2015/10/30 16:20:45","4","-1.311","9.564","705","139.929842","patrol01","37.490313","1446189719105","20151030_162045","0.118"
"2015/10/30 16:20:45","4","-1.235","9.546","706","139.92985","patrol01","37.490312","1446189719206","20151030_162045","-0.042"
"2015/10/30 16:20:45","4","-1.254","9.212","707","139.929857","patrol01","37.490312","1446189719306","20151030_162045","0.238"
"2015/10/30 16:20:45","4","-1.231","9.516","708","139.929865","patrol01","37.490311","1446189719407","20151030_162045","0.137"
"2015/10/30 16:20:45","4","-1.109","9.744","709","139.929873","patrol01","37.49031","1446189719508","20151030_162045","-0.119"
"2015/10/30 16:20:45","4","-0.97","9.887","710","139.929881","patrol01","37.490309","1446189719608","20151030_162045","-0.113"
"2015/10/30 16:20:45","4","-0.942","9.791","711","139.929888","patrol01","37.490308","1446189719704","20151030_162045","-0.003"
"2015/10/30 16:20:45","4","-0.943","9.766","712","139.929896","patrol01","37.490307","1446189719805","20151030_162045","-0.059"
"2015/10/30 16:20:45","4","-0.914","9.775","713","139.929904","patrol01","37.490306","1446189719906","20151030_162045","-0.071"
"2015/10/30 16:20:45","4","-0.883","9.688","714","139.929913","patrol01","37.490306","1446189720006","20151030_162045","-0.054"
"2015/10/30 16:20:45","4","-0.761","9.912","715","139.929921","patrol01","37.490305","1446189720107","20151030_162045","-0.024"
"2015/10/30 16:20:45","4","-0.822","9.661","716","139.929929","patrol01","37.490304","1446189720208","20151030_162045","-0.038"
"2015/10/30 16:20:45","4","-0.846","9.424","717","139.929937","patrol01","37.490303","1446189720308","20151030_162045","-0.051"
"2015/10/30 16:20:45","4","-0.786","9.653","718","139.929944","patrol01","37.490302","1446189720404","20151030_162045","-0.029"
"2015/10/30 16:20:45","4","-0.721","9.807","719","139.929952","patrol01","37.490302","1446189720505","20151030_162045","0.087"
"2015/10/30 16:20:45","4","-0.655","9.783","720","139.92996","patrol01","37.490301","1446189720606","20151030_162045","0.089"
"2015/10/30 16:20:45","3","-0.629","9.659","721","139.929968","patrol01","37.4903","1446189720706","20151030_162045","-0.006"
"2015/10/30 16:20:45","3","-0.662","9.674","722","139.929975","patrol01","37.490301","1446189720807","20151030_162045","0.102"
"2015/10/30 16:20:45","3","-0.668","9.617","723","139.929982","patrol01","37.490302","1446189720908","20151030_162045","0.093"
"2015/10/30 16:20:45","3","-0.644","9.65","724","139.929988","patrol01","37.490302","1446189721008","20151030_162045","0.1"
"2015/10/30 16:20:45","3","-0.613","9.754","725","139.929995","patrol01","37.490303","1446189721104","20151030_162045","0.087"
"2015/10/30 16:20:45","3","-0.6","9.807","726","139.930001","patrol01","37.490304","1446189721205","20151030_162045","0.126"
"2015/10/30 16:20:45","3","-0.537","9.756","727","139.930008","patrol01","37.490305","1446189721305","20151030_162045","0.197"
"2015/10/30 16:20:45","3","-0.546","9.555","728","139.930015","patrol01","37.490306","1446189721406","20151030_162045","0.17"
"2015/10/30 16:20:45","3","-0.461","9.604","729","139.930021","patrol01","37.490306","1446189721507","20151030_162045","0.328"
"2015/10/30 16:20:45","3","-0.345","9.982","730","139.930028","patrol01","37.490307","1446189721608","20151030_162045","0.376"
"2015/10/30 16:20:45","4","-0.384","9.706","731","139.930034","patrol01","37.490308","1446189721708","20151030_162045","0.335"
"2015/10/30 16:20:45","4","-0.362","9.713","732","139.930039","patrol01","37.490308","1446189721804","20151030_162045","0.249"
"2015/10/30 16:20:45","4","-0.431","9.651","733","139.930044","patrol01","37.490308","1446189721905","20151030_162045","0.336"
"2015/10/30 16:20:45","4","-0.372","9.88","734","139.930049","patrol01","37.490308","1446189722005","20151030_162045","0.321"
"2015/10/30 16:20:45","4","-0.193","9.979","735","139.930054","patrol01","37.490308","1446189722106","20151030_162045","0.02"
"2015/10/30 16:20:45","4","-0.275","9.824","736","139.930059","patrol01","37.490309","1446189722207","20151030_162045","-0.141"
"2015/10/30 16:20:45","4","-0.342","9.561","737","139.930064","patrol01","37.490309","1446189722307","20151030_162045","-0.121"
"2015/10/30 16:20:45","4","-0.475","9.336","738","139.930069","patrol01","37.490309","1446189722404","20151030_162045","0.173"
"2015/10/30 16:20:45","4","-0.367","9.591","739","139.930073","patrol01","37.490309","1446189722505","20151030_162045","0.434"
"2015/10/30 16:20:45","4","-0.215","9.822","740","139.930078","patrol01","37.490309","1446189722605","20151030_162045","0.462"
"2015/10/30 16:20:45","5","-0.127","9.825","741","139.930083","patrol01","37.490309","1446189722705","20151030_162045","0.269"
"2015/10/30 16:20:45","5","0.03","10.002","742","139.930089","patrol01","37.490307","1446189722806","20151030_162045","-0.045"
"2015/10/30 16:20:45","5","-0.158","9.848","743","139.930095","patrol01","37.490305","1446189722907","20151030_162045","0.112"
"2015/10/30 16:20:45","5","-0.229","9.819","744","139.930101","patrol01","37.490303","1446189723007","20151030_162045","0.348"
"2015/10/30 16:20:45","5","-0.243","9.716","745","139.930108","patrol01","37.490301","1446189723108","20151030_162045","0.279"
"2015/10/30 16:20:45","5","-0.301","9.7","746","139.930113","patrol01","37.490299","1446189723204","20151030_162045","0.117"
"2015/10/30 16:20:45","5","-0.311","9.599","747","139.930119","patrol01","37.490297","1446189723304","20151030_162045","0.04"
"2015/10/30 16:20:45","5","-0.285","9.813","748","139.930125","patrol01","37.490295","1446189723405","20151030_162045","-0.011"
"2015/10/30 16:20:45","5","-0.33","9.826","749","139.930131","patrol01","37.490293","1446189723506","20151030_162045","0.072"
"2015/10/30 16:20:45","5","-0.385","9.636","750","139.930138","patrol01","37.490291","1446189723607","20151030_162045","0.232"
"2015/10/30 16:20:45","4","-0.384","9.555","751","139.930143","patrol01","37.490289","1446189723707","20151030_162045","0.285"
"2015/10/30 16:20:45","4","-0.406","9.397","752","139.930148","patrol01","37.490288","1446189723808","20151030_162045","0.353"
"2015/10/30 16:20:45","4","-0.402","9.601","753","139.930153","patrol01","37.490287","1446189723904","20151030_162045","0.166"
"2015/10/30 16:20:45","4","-0.354","9.825","754","139.930157","patrol01","37.490287","1446189724004","20151030_162045","-0.05"
"2015/10/30 16:20:45","4","-0.472","9.325","755","139.930162","patrol01","37.490286","1446189724105","20151030_162045","-0.179"
"2015/10/30 16:20:45","4","-0.509","9.304","756","139.930167","patrol01","37.490285","1446189724206","20151030_162045","0.202"
"2015/10/30 16:20:45","4","-0.228","9.868","757","139.930172","patrol01","37.490284","1446189724307","20151030_162045","0.18"
"2015/10/30 16:20:45","4","-0.139","10.172","758","139.930176","patrol01","37.490283","1446189724407","20151030_162045","0.22"
"2015/10/30 16:20:45","4","-0.31","10.009","759","139.930181","patrol01","37.490283","1446189724508","20151030_162045","-0.038"
"2015/10/30 16:20:45","4","-0.312","9.629","760","139.930186","patrol01","37.490282","1446189724604","20151030_162045","0.01"
"2015/10/30 16:20:45","4","-0.285","9.393","761","139.93019","patrol01","37.490281","1446189724704","20151030_162045","0.383"
"2015/10/30 16:20:45","4","-0.46","9.366","762","139.930194","patrol01","37.490282","1446189724805","20151030_162045","0.807"
"2015/10/30 16:20:45","4","-0.45","9.937","763","139.930198","patrol01","37.490283","1446189724906","20151030_162045","1.13"
"2015/10/30 16:20:45","4","-0.294","10.12","764","139.930202","patrol01","37.490283","1446189725006","20151030_162045","1.088"
"2015/10/30 16:20:45","4","-0.322","9.692","765","139.930205","patrol01","37.490284","1446189725107","20151030_162045","0.996"
"2015/10/30 16:20:45","4","-0.276","9.384","766","139.930209","patrol01","37.490285","1446189725208","20151030_162045","0.771"
"2015/10/30 16:20:45","4","-0.194","9.591","767","139.930213","patrol01","37.490286","1446189725304","20151030_162045","0.807"
"2015/10/30 16:20:45","4","-0.238","9.864","768","139.930217","patrol01","37.490287","1446189725405","20151030_162045","0.927"
"2015/10/30 16:20:45","4","-0.102","9.982","769","139.930221","patrol01","37.490287","1446189725505","20151030_162045","1.1"
"2015/10/30 16:20:45","4","-0.309","9.885","770","139.930224","patrol01","37.490288","1446189725606","20151030_162045","1.141"
"2015/10/30 16:20:45","4","-0.305","9.572","771","139.930228","patrol01","37.490289","1446189725706","20151030_162045","1.268"
"2015/10/30 16:20:45","4","-0.391","9.359","772","139.930231","patrol01","37.490293","1446189725807","20151030_162045","1.489"
"2015/10/30 16:20:45","4","-0.402","9.456","773","139.930234","patrol01","37.490297","1446189725908","20151030_162045","1.532"
"2015/10/30 16:20:45","4","-0.448","9.618","774","139.930238","patrol01","37.490301","1446189726008","20151030_162045","1.373"
"2015/10/30 16:20:45","4","-0.496","9.584","775","139.930241","patrol01","37.490305","1446189726104","20151030_162045","1.177"
"2015/10/30 16:20:45","4","-0.282","9.724","776","139.930244","patrol01","37.490309","1446189726205","20151030_162045","1.376"
"2015/10/30 16:20:45","4","-0.095","9.909","777","139.930247","patrol01","37.490313","1446189726306","20151030_162045","1.689"
"2015/10/30 16:20:45","4","-0.083","9.837","778","139.93025","patrol01","37.490317","1446189726406","20151030_162045","1.866"
"2015/10/30 16:20:45","4","-0.265","9.515","779","139.930253","patrol01","37.490321","1446189726507","20151030_162045","1.806"
"2015/10/30 16:20:45","4","-0.456","9.546","780","139.930256","patrol01","37.490324","1446189726608","20151030_162045","1.677"
"2015/10/30 16:20:45","5","-0.654","9.685","781","139.930259","patrol01","37.490328","1446189726708","20151030_162045","1.428"
"2015/10/30 16:20:45","5","-0.899","9.597","782","139.930262","patrol01","37.49033","1446189726804","20151030_162045","1.374"
"2015/10/30 16:20:45","5","-1.087","9.525","783","139.930264","patrol01","37.490332","1446189726905","20151030_162045","1.567"
"2015/10/30 16:20:45","5","-1.103","9.568","784","139.930266","patrol01","37.490333","1446189727006","20151030_162045","2.02"
"2015/10/30 16:20:45","5","-1.032","9.544","785","139.930269","patrol01","37.490335","1446189727106","20151030_162045","2.391"
"2015/10/30 16:20:45","5","-0.971","9.538","786","139.930271","patrol01","37.490337","1446189727207","20151030_162045","2.439"
"2015/10/30 16:20:45","5","-0.995","9.673","787","139.930274","patrol01","37.490338","1446189727308","20151030_162045","2.256"
"2015/10/30 16:20:45","5","-1.081","9.641","788","139.930276","patrol01","37.49034","1446189727408","20151030_162045","2.047"
"2015/10/30 16:20:45","5","-1.105","9.436","789","139.930278","patrol01","37.490342","1446189727504","20151030_162045","1.957"
"2015/10/30 16:20:45","5","-1.174","9.265","790","139.930281","patrol01","37.490343","1446189727610","20151030_162045","2.01"
"2015/10/30 16:20:45","5","-1.065","9.487","791","139.930283","patrol01","37.490345","1446189727705","20151030_162045","2.191"
"2015/10/30 16:20:45","5","-0.936","9.783","792","139.930284","patrol01","37.490349","1446189727804","20151030_162045","2.555"
"2015/10/30 16:20:45","5","-0.944","9.796","793","139.930285","patrol01","37.490353","1446189727907","20151030_162045","2.75"
"2015/10/30 16:20:45","5","-0.882","9.614","794","139.930286","patrol01","37.490357","1446189728006","20151030_162045","2.588"
"2015/10/30 16:20:45","5","-0.811","9.539","795","139.930287","patrol01","37.490361","1446189728108","20151030_162045","2.42"
"2015/10/30 16:20:45","5","-0.828","9.418","796","139.930288","patrol01","37.490365","1446189728204","20151030_162045","2.365"
"2015/10/30 16:20:45","5","-0.907","9.458","797","139.930289","patrol01","37.490369","1446189728305","20151030_162045","2.332"
"2015/10/30 16:20:45","5","-0.95","9.61","798","139.93029","patrol01","37.490373","1446189728405","20151030_162045","2.414"
"2015/10/30 16:20:45","5","-1.03","9.733","799","139.930291","patrol01","37.490377","1446189728506","20151030_162045","2.428"
"2015/10/30 16:20:45","5","-1.135","9.601","800","139.930292","patrol01","37.490381","1446189728607","20151030_162045","1.97"
"2015/10/30 16:20:45","3","-1.203","9.653","801","139.930293","patrol01","37.490385","1446189728707","20151030_162045","1.202"
"2015/10/30 16:20:45","3","-1.247","9.678","802","139.930295","patrol01","37.490389","1446189728808","20151030_162045","0.608"
"2015/10/30 16:20:45","3","-1.341","9.675","803","139.930296","patrol01","37.490393","1446189728904","20151030_162045","0.187"
"2015/10/30 16:20:45","3","-1.441","9.71","804","139.930297","patrol01","37.490397","1446189729005","20151030_162045","0.033"
"2015/10/30 16:20:45","3","-1.443","9.686","805","139.930299","patrol01","37.490401","1446189729105","20151030_162045","-0.008"
"2015/10/30 16:20:45","3","-1.442","9.503","806","139.9303","patrol01","37.490405","1446189729206","20151030_162045","0.001"
"2015/10/30 16:20:45","3","-1.511","9.595","807","139.930302","patrol01","37.490409","1446189729307","20151030_162045","0.253"
"2015/10/30 16:20:45","3","-1.493","9.652","808","139.930303","patrol01","37.490413","1446189729407","20151030_162045","0.192"
"2015/10/30 16:20:45","3","-1.51","9.656","809","139.930304","patrol01","37.490417","1446189729508","20151030_162045","0.259"
"2015/10/30 16:20:45","3","-1.46","9.642","810","139.930306","patrol01","37.490421","1446189729604","20151030_162045","0.275"
"2015/10/30 16:20:45","3","-1.48","9.652","811","139.930307","patrol01","37.490425","1446189729705","20151030_162045","0.463"
"2015/10/30 16:20:45","3","-1.469","9.55","812","139.930308","patrol01","37.490429","1446189729805","20151030_162045","0.528"
"2015/10/30 16:20:45","3","-1.497","9.502","813","139.930309","patrol01","37.490433","1446189729906","20151030_162045","0.553"
"2015/10/30 16:20:45","3","-1.469","9.544","814","139.93031","patrol01","37.490438","1446189730007","20151030_162045","0.415"
"2015/10/30 16:20:45","3","-1.489","9.6","815","139.930311","patrol01","37.490442","1446189730107","20151030_162045","0.16"
"2015/10/30 16:20:45","3","-1.468","9.622","816","139.930312","patrol01","37.490446","1446189730208","20151030_162045","-0.1"
"2015/10/30 16:20:45","3","-1.406","9.687","817","139.930313","patrol01","37.49045","1446189730304","20151030_162045","-0.219"
"2015/10/30 16:20:45","3","-1.467","9.686","818","139.930314","patrol01","37.490454","1446189730404","20151030_162045","-0.108"
"2015/10/30 16:20:45","3","-1.469","9.635","819","139.930315","patrol01","37.490458","1446189730505","20151030_162045","0.057"
"2015/10/30 16:20:45","3","-1.45","9.713","820","139.930316","patrol01","37.490462","1446189730606","20151030_162045","0.127"
"2015/10/30 16:20:45","4","-1.431","9.711","821","139.930317","patrol01","37.490466","1446189730706","20151030_162045","0.107"
"2015/10/30 16:20:45","4","-1.43","9.671","822","139.930317","patrol01","37.490473","1446189730807","20151030_162045","0.113"
"2015/10/30 16:20:45","4","-1.425","9.639","823","139.930317","patrol01","37.490479","1446189730908","20151030_162045","0.047"
"2015/10/30 16:20:45","4","-1.429","9.504","824","139.930317","patrol01","37.490485","1446189731004","20151030_162045","0.01"
"2015/10/30 16:20:45","4","-1.372","9.669","825","139.930317","patrol01","37.490492","1446189731104","20151030_162045","0.087"
"2015/10/30 16:20:45","4","-1.309","9.817","826","139.930318","patrol01","37.490498","1446189731205","20151030_162045","0.08"
"2015/10/30 16:20:45","4","-1.242","9.875","827","139.930318","patrol01","37.490505","1446189731306","20151030_162045","0.095"
"2015/10/30 16:20:45","4","-1.251","9.67","828","139.930318","patrol01","37.490511","1446189731406","20151030_162045","0.061"
"2015/10/30 16:20:45","4","-1.301","9.636","829","139.930318","patrol01","37.490518","1446189731507","20151030_162045","-0.001"
"2015/10/30 16:20:45","4","-1.288","9.701","830","139.930318","patrol01","37.490524","1446189731608","20151030_162045","-0.005"
"2015/10/30 16:20:45","5","-1.272","9.76","831","139.930318","patrol01","37.490531","1446189731709","20151030_162045","0.002"
"2015/10/30 16:20:45","5","-1.254","9.81","832","139.930319","patrol01","37.490535","1446189731804","20151030_162045","-0.047"
"2015/10/30 16:20:45","5","-1.186","9.649","833","139.93032","patrol01","37.49054","1446189731905","20151030_162045","-0.11"
"2015/10/30 16:20:45","5","-1.168","9.568","834","139.930322","patrol01","37.490545","1446189732006","20151030_162045","-0.119"
"2015/10/30 16:20:45","5","-1.19","9.59","835","139.930323","patrol01","37.49055","1446189732106","20151030_162045","-0.174"
"2015/10/30 16:20:45","5","-1.184","9.813","836","139.930324","patrol01","37.490555","1446189732207","20151030_162045","-0.101"
"2015/10/30 16:20:45","5","-1.199","9.675","837","139.930325","patrol01","37.49056","1446189732308","20151030_162045","-0.098"
"2015/10/30 16:20:45","5","-1.213","9.606","838","139.930327","patrol01","37.490565","1446189732408","20151030_162045","-0.118"
"2015/10/30 16:20:45","5","-1.142","9.677","839","139.930328","patrol01","37.49057","1446189732504","20151030_162045","-0.104"
"2015/10/30 16:20:45","5","-1.166","9.748","840","139.930329","patrol01","37.490575","1446189732605","20151030_162045","-0.18"
"2015/10/30 16:20:45","4","-1.148","9.816","841","139.93033","patrol01","37.49058","1446189732706","20151030_162045","-0.147"
"2015/10/30 16:20:45","4","-1.148","9.731","842","139.93033","patrol01","37.490586","1446189732806","20151030_162045","-0.122"
"2015/10/30 16:20:45","4","-1.151","9.695","843","139.930331","patrol01","37.490592","1446189732907","20151030_162045","-0.126"
"2015/10/30 16:20:45","4","-1.185","9.7","844","139.930331","patrol01","37.490598","1446189733008","20151030_162045","-0.131"
"2015/10/30 16:20:45","4","-1.194","9.711","845","139.930331","patrol01","37.490604","1446189733108","20151030_162045","-0.031"
"2015/10/30 16:20:45","4","-1.217","9.621","846","139.930332","patrol01","37.490609","1446189733204","20151030_162045","0.028"
"2015/10/30 16:20:45","4","-1.221","9.56","847","139.930332","patrol01","37.490615","1446189733305","20151030_162045","0.058"
"2015/10/30 16:20:45","4","-1.175","9.768","848","139.930332","patrol01","37.490621","1446189733405","20151030_162045","-0.036"
"2015/10/30 16:20:45","4","-1.245","9.798","849","139.930332","patrol01","37.490627","1446189733506","20151030_162045","-0.083"
"2015/10/30 16:20:45","4","-1.246","9.651","850","139.930333","patrol01","37.490633","1446189733607","20151030_162045","0.002"
"2015/10/30 16:20:45","4","-1.211","9.696","851","139.930333","patrol01","37.490639","1446189733708","20151030_162045","0.037"
"2015/10/30 16:20:45","4","-1.302","9.709","852","139.930334","patrol01","37.490645","1446189733808","20151030_162045","-0.019"
"2015/10/30 16:20:45","4","-1.252","9.761","853","139.930335","patrol01","37.490651","1446189733904","20151030_162045","-0.013"
"2015/10/30 16:20:45","4","-1.233","9.682","854","139.930337","patrol01","37.490658","1446189734005","20151030_162045","-0.116"
"2015/10/30 16:20:45","4","-1.299","9.458","855","139.930338","patrol01","37.490664","1446189734105","20151030_162045","-0.058"
"2015/10/30 16:20:45","4","-1.218","9.44","856","139.930339","patrol01","37.49067","1446189734206","20151030_162045","-0.01"
"2015/10/30 16:20:45","4","-1.196","9.584","857","139.93034","patrol01","37.490677","1446189734307","20151030_162045","-0.007"
"2015/10/30 16:20:45","4","-1.094","9.716","858","139.930342","patrol01","37.490683","1446189734408","20151030_162045","-0.039"
"2015/10/30 16:20:45","4","-1.004","9.656","859","139.930343","patrol01","37.49069","1446189734508","20151030_162045","-0.017"
"2015/10/30 16:20:45","4","-0.924","9.638","860","139.930344","patrol01","37.490696","1446189734604","20151030_162045","-0.057"
"2015/10/30 16:20:45","3","-0.875","9.727","861","139.930345","patrol01","37.490702","1446189734705","20151030_162045","-0.039"
"2015/10/30 16:20:45","3","-0.841","9.698","862","139.930347","patrol01","37.490709","1446189734805","20151030_162045","-0.016"
"2015/10/30 16:20:45","3","-0.802","9.821","863","139.93035","patrol01","37.490715","1446189734906","20151030_162045","-0.004"
"2015/10/30 16:20:45","3","-0.79","9.88","864","139.930352","patrol01","37.490722","1446189735007","20151030_162045","-0.01"
"2015/10/30 16:20:45","3","-0.752","9.864","865","139.930354","patrol01","37.490728","1446189735107","20151030_162045","0.093"
"2015/10/30 16:20:45","3","-0.791","9.626","866","139.930357","patrol01","37.490735","1446189735208","20151030_162045","0.123"
"2015/10/30 16:20:45","3","-0.803","9.625","867","139.930359","patrol01","37.490741","1446189735304","20151030_162045","0.099"
"2015/10/30 16:20:45","3","-0.776","9.67","868","139.930361","patrol01","37.490747","1446189735405","20151030_162045","0.014"
"2015/10/30 16:20:45","3","-0.864","9.726","869","139.930364","patrol01","37.490754","1446189735505","20151030_162045","0.061"
"2015/10/30 16:20:45","3","-0.775","9.743","870","139.930366","patrol01","37.49076","1446189735606","20151030_162045","0.017"
"2015/10/30 16:20:45","3","-0.797","9.736","871","139.930368","patrol01","37.490767","1446189735707","20151030_162045","0.124"
"2015/10/30 16:20:45","3","-0.789","9.79","872","139.930368","patrol01","37.490772","1446189735807","20151030_162045","0.073"
"2015/10/30 16:20:45","3","-0.809","9.821","873","139.930369","patrol01","37.490778","1446189735908","20151030_162045","0.072"
"2015/10/30 16:20:45","3","-0.794","9.703","874","139.930369","patrol01","37.490784","1446189736004","20151030_162045","0.095"
"2015/10/30 16:20:45","3","-0.787","9.731","875","139.93037","patrol01","37.49079","1446189736104","20151030_162045","0.137"
"2015/10/30 16:20:45","3","-0.795","9.706","876","139.93037","patrol01","37.490796","1446189736205","20151030_162045","0.152"
"2015/10/30 16:20:45","3","-0.729","9.782","877","139.93037","patrol01","37.490802","1446189736306","20151030_162045","0.099"
"2015/10/30 16:20:45","3","-0.763","9.737","878","139.930371","patrol01","37.490807","1446189736407","20151030_162045","0.044"
"2015/10/30 16:20:45","3","-0.793","9.719","879","139.930371","patrol01","37.490813","1446189736507","20151030_162045","0.105"
"2015/10/30 16:20:45","3","-0.82","9.66","880","139.930372","patrol01","37.490819","1446189736608","20151030_162045","0.119"
"2015/10/30 16:20:45","3","-0.803","9.656","881","139.930372","patrol01","37.490824","1446189736704","20151030_162045","0.069"
"2015/10/30 16:20:45","3","-0.758","9.677","882","139.930373","patrol01","37.490829","1446189736804","20151030_162045","0.006"
"2015/10/30 16:20:45","3","-0.754","9.65","883","139.930375","patrol01","37.490834","1446189736905","20151030_162045","0.013"
"2015/10/30 16:20:45","3","-0.718","9.67","884","139.930376","patrol01","37.490839","1446189737006","20151030_162045","0.026"
"2015/10/30 16:20:45","3","-0.766","9.683","885","139.930377","patrol01","37.490843","1446189737106","20151030_162045","0.123"
"2015/10/30 16:20:45","3","-0.799","9.787","886","139.930378","patrol01","37.490848","1446189737207","20151030_162045","0.067"
"2015/10/30 16:20:45","3","-0.735","9.793","887","139.930379","patrol01","37.490853","1446189737308","20151030_162045","0.114"
"2015/10/30 16:20:45","3","-0.733","9.721","888","139.93038","patrol01","37.490857","1446189737404","20151030_162045","0.117"
"2015/10/30 16:20:45","3","-0.693","9.777","889","139.930381","patrol01","37.490862","1446189737504","20151030_162045","0.085"
"2015/10/30 16:20:45","3","-0.707","9.666","890","139.930382","patrol01","37.490867","1446189737605","20151030_162045","0.155"
"2015/10/30 16:20:45","4","-0.689","9.679","891","139.930384","patrol01","37.490872","1446189737706","20151030_162045","0.127"
"2015/10/30 16:20:45","4","-0.674","9.667","892","139.930386","patrol01","37.490876","1446189737806","20151030_162045","0.129"
"2015/10/30 16:20:45","4","-0.701","9.626","893","139.930388","patrol01","37.490881","1446189737907","20151030_162045","0.123"
"2015/10/30 16:20:45","4","-0.659","9.621","894","139.93039","patrol01","37.490886","1446189738008","20151030_162045","0.032"
"2015/10/30 16:20:45","4","-0.664","9.636","895","139.930392","patrol01","37.49089","1446189738104","20151030_162045","0.115"
"2015/10/30 16:20:45","4","-0.669","9.651","896","139.930394","patrol01","37.490895","1446189738204","20151030_162045","0.103"
"2015/10/30 16:20:45","4","-0.614","9.782","897","139.930396","patrol01","37.4909","1446189738305","20151030_162045","0.137"
"2015/10/30 16:20:45","4","-0.591","9.769","898","139.930398","patrol01","37.490904","1446189738406","20151030_162045","0.047"
"2015/10/30 16:20:45","4","-0.581","9.724","899","139.9304","patrol01","37.490909","1446189738506","20151030_162045","0.041"
"2015/10/30 16:20:45","4","-0.562","9.744","900","139.930402","patrol01","37.490914","1446189738607","20151030_162045","0.068"
"2015/10/30 16:20:45","4","-0.583","9.769","901","139.930403","patrol01","37.490919","1446189738708","20151030_162045","0.055"
"2015/10/30 16:20:45","4","-0.569","9.681","902","139.930405","patrol01","37.490923","1446189738808","20151030_162045","0.055"
"2015/10/30 16:20:45","4","-0.483","9.752","903","139.930406","patrol01","37.490928","1446189738904","20151030_162045","0.028"
"2015/10/30 16:20:45","4","-0.417","9.707","904","139.930407","patrol01","37.490932","1446189739005","20151030_162045","0.098"
"2015/10/30 16:20:45","4","-0.403","9.732","905","139.930408","patrol01","37.490937","1446189739106","20151030_162045","0.016"
"2015/10/30 16:20:45","4","-0.392","9.623","906","139.930409","patrol01","37.490942","1446189739206","20151030_162045","-0.013"
"2015/10/30 16:20:45","4","-0.377","9.791","907","139.930411","patrol01","37.490946","1446189739307","20151030_162045","0.011"
"2015/10/30 16:20:45","4","-0.414","9.722","908","139.930412","patrol01","37.490951","1446189739408","20151030_162045","-0.033"
"2015/10/30 16:20:45","4","-0.438","9.667","909","139.930413","patrol01","37.490956","1446189739508","20151030_162045","0.016"
"2015/10/30 16:20:45","4","-0.388","9.693","910","139.930414","patrol01","37.49096","1446189739604","20151030_162045","0.055"
"2015/10/30 16:20:45","4","-0.4","9.681","911","139.930415","patrol01","37.490964","1446189739705","20151030_162045","0.08"
"2015/10/30 16:20:45","4","-0.336","9.797","912","139.930417","patrol01","37.490968","1446189739805","20151030_162045","0.033"
"2015/10/30 16:20:45","4","-0.351","9.669","913","139.930418","patrol01","37.490972","1446189739906","20151030_162045","0.029"
"2015/10/30 16:20:45","4","-0.307","9.702","914","139.930419","patrol01","37.490975","1446189740007","20151030_162045","-0.006"
"2015/10/30 16:20:45","4","-0.218","9.653","915","139.93042","patrol01","37.490979","1446189740108","20151030_162045","0.014"
"2015/10/30 16:20:45","4","-0.1","9.693","916","139.930421","patrol01","37.490982","1446189740208","20151030_162045","-0.029"
"2015/10/30 16:20:45","4","-0.059","9.751","917","139.930423","patrol01","37.490986","1446189740304","20151030_162045","-0.076"
"2015/10/30 16:20:45","4","-0.038","9.739","918","139.930424","patrol01","37.490989","1446189740405","20151030_162045","-0.114"
"2015/10/30 16:20:45","4","-0.041","9.741","919","139.930425","patrol01","37.490993","1446189740505","20151030_162045","-0.059"
"2015/10/30 16:20:45","4","0.0","9.669","920","139.930426","patrol01","37.490997","1446189740606","20151030_162045","-0.035"
"2015/10/30 16:20:45","4","-0.046","9.721","921","139.930427","patrol01","37.491","1446189740707","20151030_162045","-0.01"
"2015/10/30 16:20:45","4","0.003","9.8","922","139.930428","patrol01","37.491003","1446189740807","20151030_162045","-0.002"
"2015/10/30 16:20:45","4","-0.041","9.717","923","139.930429","patrol01","37.491005","1446189740908","20151030_162045","-0.011"
"2015/10/30 16:20:45","4","-0.024","9.737","924","139.93043","patrol01","37.491008","1446189741004","20151030_162045","-0.061"
"2015/10/30 16:20:45","4","-0.061","9.674","925","139.93043","patrol01","37.491011","1446189741105","20151030_162045","-0.055"
"2015/10/30 16:20:45","4","0.002","9.765","926","139.930431","patrol01","37.491013","1446189741205","20151030_162045","-0.009"
"2015/10/30 16:20:45","4","-0.024","9.699","927","139.930432","patrol01","37.491016","1446189741306","20151030_162045","0.034"
"2015/10/30 16:20:45","4","0.006","9.735","928","139.930433","patrol01","37.491019","1446189741407","20151030_162045","-0.038"
"2015/10/30 16:20:45","4","0.004","9.794","929","139.930434","patrol01","37.491022","1446189741507","20151030_162045","-0.007"
"2015/10/30 16:20:45","4","0.042","9.733","930","139.930435","patrol01","37.491024","1446189741608","20151030_162045","0.041"
"2015/10/30 16:20:45","3","-0.051","9.659","931","139.930435","patrol01","37.491027","1446189741709","20151030_162045","0.025"
"2015/10/30 16:20:45","3","-0.117","9.693","932","139.930436","patrol01","37.49103","1446189741804","20151030_162045","-0.017"
"2015/10/30 16:20:45","3","-0.159","9.757","933","139.930437","patrol01","37.491034","1446189741904","20151030_162045","-0.03"
"2015/10/30 16:20:45","3","-0.12","9.788","934","139.930437","patrol01","37.491037","1446189742006","20151030_162045","0.136"
"2015/10/30 16:20:45","3","-0.168","9.644","935","139.930438","patrol01","37.49104","1446189742105","20151030_162045","0.268"
"2015/10/30 16:20:45","3","-0.062","9.778","936","139.930439","patrol01","37.491044","1446189742207","20151030_162045","0.341"
"2015/10/30 16:20:45","3","-0.006","9.762","937","139.930439","patrol01","37.491047","1446189742306","20151030_162045","0.251"
"2015/10/30 16:20:45","3","0.056","9.671","938","139.93044","patrol01","37.49105","1446189742404","20151030_162045","0.117"
"2015/10/30 16:20:45","3","0.136","9.696","939","139.930441","patrol01","37.491054","1446189742504","20151030_162045","0.062"
"2015/10/30 16:20:45","3","0.175","9.756","940","139.930442","patrol01","37.491057","1446189742605","20151030_162045","0.071"
"2015/10/30 16:20:45","3","0.224","9.782","941","139.930442","patrol01","37.49106","1446189742706","20151030_162045","0.109"
"2015/10/30 16:20:45","3","0.262","9.713","942","139.930443","patrol01","37.491062","1446189742807","20151030_162045","0.139"
"2015/10/30 16:20:45","3","0.285","9.802","943","139.930444","patrol01","37.491064","1446189742907","20151030_162045","0.163"
"2015/10/30 16:20:45","3","0.303","9.756","944","139.930445","patrol01","37.491066","1446189743008","20151030_162045","0.109"
"2015/10/30 16:20:45","3","0.346","9.725","945","139.930446","patrol01","37.491068","1446189743104","20151030_162045","0.176"
"2015/10/30 16:20:45","3","0.315","9.672","946","139.930447","patrol01","37.49107","1446189743204","20151030_162045","0.058"
"2015/10/30 16:20:45","3","0.292","9.754","947","139.930448","patrol01","37.491072","1446189743305","20151030_162045","0.054"
