"measurement_datetime","gps_error_meter","accel_y_longitudinal","accel_z_vertical","oid","longitude","car_name","latitude","measurement_ms","measurement_data_id","accel_x_transverse"
"2015/11/10 09:12:24","15","-0.379","9.652","102823","139.934229","patrol01","37.521679","1447114380425","20151110_091224","0.98"
"2015/11/10 09:12:24","15","-0.359","9.637","102824","139.93422","patrol01","37.521678","1447114380525","20151110_091224","1.139"
"2015/11/10 09:12:24","15","-0.238","9.613","102825","139.934212","patrol01","37.521678","1447114380626","20151110_091224","1.226"
"2015/11/10 09:12:24","15","-0.139","9.632","102826","139.934204","patrol01","37.521677","1447114380727","20151110_091224","1.216"
"2015/11/10 09:12:24","15","-0.067","9.706","102827","139.934196","patrol01","37.521676","1447114380823","20151110_091224","1.21"
"2015/11/10 09:12:24","15","-0.047","9.76","102828","139.934188","patrol01","37.521675","1447114380923","20151110_091224","1.276"
"2015/11/10 09:12:24","15","-0.026","9.629","102829","139.93418","patrol01","37.521674","1447114381024","20151110_091224","1.389"
"2015/11/10 09:12:24","15","-0.045","9.619","102830","139.934172","patrol01","37.521674","1447114381125","20151110_091224","1.417"
"2015/11/10 09:12:24","15","-0.079","9.768","102831","139.934164","patrol01","37.521673","1447114381225","20151110_091224","1.398"
"2015/11/10 09:12:24","15","-0.118","9.915","102832","139.934155","patrol01","37.521672","1447114381326","20151110_091224","1.284"
"2015/11/10 09:12:24","13","-0.165","9.778","102833","139.93415","patrol01","37.521669","1447114381427","20151110_091224","1.408"
"2015/11/10 09:12:24","13","-0.173","9.589","102834","139.934144","patrol01","37.521666","1447114381527","20151110_091224","1.551"
"2015/11/10 09:12:24","13","-0.205","9.562","102835","139.934139","patrol01","37.521662","1447114381623","20151110_091224","1.696"
"2015/11/10 09:12:24","13","-0.16","9.69","102836","139.934133","patrol01","37.521659","1447114381724","20151110_091224","1.858"
"2015/11/10 09:12:24","13","-0.071","9.838","102837","139.934128","patrol01","37.521656","1447114381825","20151110_091224","1.916"
"2015/11/10 09:12:24","13","-0.108","9.854","102838","139.934122","patrol01","37.521652","1447114381925","20151110_091224","1.905"
"2015/11/10 09:12:24","13","-0.168","9.742","102839","139.934117","patrol01","37.521649","1447114382026","20151110_091224","1.828"
"2015/11/10 09:12:24","13","-0.236","9.731","102840","139.934111","patrol01","37.521646","1447114382127","20151110_091224","1.757"
"2015/11/10 09:12:24","13","-0.338","9.786","102841","139.934106","patrol01","37.521642","1447114382227","20151110_091224","1.767"
"2015/11/10 09:12:24","13","-0.398","9.716","102842","139.934101","patrol01","37.521639","1447114382323","20151110_091224","1.832"
"2015/11/10 09:12:24","10","-0.405","9.69","102843","139.934097","patrol01","37.521633","1447114382424","20151110_091224","1.844"
"2015/11/10 09:12:24","10","-0.326","9.789","102844","139.934093","patrol01","37.521627","1447114382525","20151110_091224","1.955"
"2015/11/10 09:12:24","10","-0.295","9.848","102845","139.934089","patrol01","37.521621","1447114382625","20151110_091224","1.896"
"2015/11/10 09:12:24","10","-0.4","9.622","102846","139.934085","patrol01","37.521615","1447114382726","20151110_091224","1.896"
"2015/11/10 09:12:24","10","-0.37","9.843","102847","139.934081","patrol01","37.521608","1447114382827","20151110_091224","1.683"
"2015/11/10 09:12:24","10","-0.443","9.743","102848","139.934077","patrol01","37.521602","1447114382927","20151110_091224","1.598"
"2015/11/10 09:12:24","10","-0.535","9.697","102849","139.934074","patrol01","37.521596","1447114383023","20151110_091224","1.643"
"2015/11/10 09:12:24","10","-0.472","9.755","102850","139.93407","patrol01","37.52159","1447114383129","20151110_091224","1.64"
"2015/11/10 09:12:24","10","-0.488","9.655","102851","139.934066","patrol01","37.521584","1447114383225","20151110_091224","1.56"
"2015/11/10 09:12:24","10","-0.537","9.582","102852","139.934062","patrol01","37.521578","1447114383324","20151110_091224","1.333"
"2015/11/10 09:12:24","10","-0.623","9.484","102853","139.934059","patrol01","37.521572","1447114383426","20151110_091224","1.149"
"2015/11/10 09:12:24","10","-0.59","9.67","102854","139.934057","patrol01","37.521567","1447114383525","20151110_091224","1.121"
"2015/11/10 09:12:24","10","-0.656","9.787","102855","139.934054","patrol01","37.521562","1447114383627","20151110_091224","1.146"
"2015/11/10 09:12:24","10","-0.748","9.705","102856","139.934051","patrol01","37.521558","1447114383723","20151110_091224","1.203"
"2015/11/10 09:12:24","10","-0.789","9.651","102857","139.934048","patrol01","37.521552","1447114383824","20151110_091224","1.2"
"2015/11/10 09:12:24","10","-0.864","9.554","102858","139.934045","patrol01","37.521547","1447114383924","20151110_091224","1.092"
"2015/11/10 09:12:24","10","-0.953","9.692","102859","139.934043","patrol01","37.521542","1447114384025","20151110_091224","0.924"
"2015/11/10 09:12:24","10","-1.051","9.569","102860","139.93404","patrol01","37.521537","1447114384126","20151110_091224","0.865"
"2015/11/10 09:12:24","10","-1.099","9.481","102861","139.934037","patrol01","37.521532","1447114384227","20151110_091224","0.729"
"2015/11/10 09:12:24","10","-1.032","9.571","102862","139.934034","patrol01","37.521527","1447114384327","20151110_091224","0.565"
"2015/11/10 09:12:24","9","-0.999","9.834","102863","139.934034","patrol01","37.52152","1447114384423","20151110_091224","0.436"
"2015/11/10 09:12:24","9","-1.06","9.945","102864","139.934034","patrol01","37.521513","1447114384524","20151110_091224","0.3"
"2015/11/10 09:12:24","9","-1.164","9.793","102865","139.934034","patrol01","37.521506","1447114384624","20151110_091224","0.273"
"2015/11/10 09:12:24","9","-1.273","9.606","102866","139.934034","patrol01","37.521499","1447114384725","20151110_091224","0.298"
"2015/11/10 09:12:24","9","-1.408","9.796","102867","139.934034","patrol01","37.521491","1447114384826","20151110_091224","0.189"
"2015/11/10 09:12:24","9","-1.402","9.871","102868","139.934033","patrol01","37.521484","1447114384926","20151110_091224","0.2"
"2015/11/10 09:12:24","9","-1.393","9.851","102869","139.934033","patrol01","37.521477","1447114385027","20151110_091224","0.234"
"2015/11/10 09:12:24","9","-1.471","9.719","102870","139.934033","patrol01","37.52147","1447114385123","20151110_091224","0.169"
"2015/11/10 09:12:24","9","-1.55","9.573","102871","139.934033","patrol01","37.521463","1447114385223","20151110_091224","0.077"
"2015/11/10 09:12:24","9","-1.551","9.701","102872","139.934033","patrol01","37.521455","1447114385324","20151110_091224","-0.14"
"2015/11/10 09:12:24","9","-1.556","9.692","102873","139.934032","patrol01","37.521448","1447114385425","20151110_091224","-0.406"
"2015/11/10 09:12:24","9","-1.496","9.737","102874","139.934032","patrol01","37.521441","1447114385526","20151110_091224","-0.568"
"2015/11/10 09:12:24","9","-1.396","9.898","102875","139.934031","patrol01","37.521433","1447114385626","20151110_091224","-0.642"
"2015/11/10 09:12:24","9","-1.403","9.751","102876","139.93403","patrol01","37.521426","1447114385727","20151110_091224","-0.679"
"2015/11/10 09:12:24","9","-1.43","9.603","102877","139.93403","patrol01","37.521419","1447114385823","20151110_091224","-0.606"
"2015/11/10 09:12:24","9","-1.423","9.445","102878","139.934029","patrol01","37.521412","1447114385923","20151110_091224","-0.384"
"2015/11/10 09:12:24","9","-1.394","9.476","102879","139.934028","patrol01","37.521404","1447114386024","20151110_091224","-0.346"
"2015/11/10 09:12:24","9","-1.389","9.432","102880","139.934028","patrol01","37.521397","1447114386125","20151110_091224","-0.574"
"2015/11/10 09:12:24","9","-1.166","9.989","102881","139.934027","patrol01","37.52139","1447114386225","20151110_091224","-0.554"
"2015/11/10 09:12:24","9","-1.107","10.066","102882","139.934026","patrol01","37.521382","1447114386326","20151110_091224","-0.371"
"2015/11/10 09:12:24","8","-1.187","9.567","102883","139.934026","patrol01","37.521374","1447114386423","20151110_091224","-0.357"
"2015/11/10 09:12:24","8","-1.467","9.388","102884","139.934026","patrol01","37.521366","1447114386523","20151110_091224","-0.352"
"2015/11/10 09:12:24","8","-1.381","9.551","102885","139.934026","patrol01","37.521358","1447114386623","20151110_091224","-0.293"
"2015/11/10 09:12:24","8","-1.171","9.499","102886","139.934026","patrol01","37.521349","1447114386724","20151110_091224","-0.186"
"2015/11/10 09:12:24","8","-1.081","9.627","102887","139.934026","patrol01","37.521341","1447114386825","20151110_091224","-0.11"
"2015/11/10 09:12:24","8","-1.115","9.618","102888","139.934026","patrol01","37.521332","1447114386925","20151110_091224","-0.188"
"2015/11/10 09:12:24","8","-1.125","9.639","102889","139.934026","patrol01","37.521324","1447114387026","20151110_091224","-0.243"
"2015/11/10 09:12:24","8","-1.109","9.731","102890","139.934026","patrol01","37.521315","1447114387127","20151110_091224","-0.269"
"2015/11/10 09:12:24","8","-1.066","9.778","102891","139.934026","patrol01","37.521307","1447114387223","20151110_091224","-0.247"
"2015/11/10 09:12:24","8","-1.022","9.886","102892","139.934026","patrol01","37.521299","1447114387323","20151110_091224","-0.272"
"2015/11/10 09:12:24","7","-1.066","9.742","102893","139.934025","patrol01","37.52129","1447114387424","20151110_091224","-0.292"
"2015/11/10 09:12:24","7","-1.137","9.537","102894","139.934025","patrol01","37.52128","1447114387525","20151110_091224","-0.302"
"2015/11/10 09:12:24","7","-1.151","9.479","102895","139.934024","patrol01","37.521271","1447114387625","20151110_091224","-0.244"
"2015/11/10 09:12:24","7","-1.094","9.501","102896","139.934023","patrol01","37.521262","1447114387726","20151110_091224","-0.229"
"2015/11/10 09:12:24","7","-1.019","9.706","102897","139.934023","patrol01","37.521253","1447114387827","20151110_091224","-0.339"
"2015/11/10 09:12:24","7","-1.008","9.764","102898","139.934022","patrol01","37.521244","1447114387923","20151110_091224","-0.384"
"2015/11/10 09:12:24","7","-1.05","9.696","102899","139.934021","patrol01","37.521235","1447114388023","20151110_091224","-0.352"
"2015/11/10 09:12:24","7","-1.087","9.729","102900","139.934021","patrol01","37.521225","1447114388124","20151110_091224","-0.418"
"2015/11/10 09:12:24","7","-1.05","9.614","102901","139.93402","patrol01","37.521216","1447114388225","20151110_091224","-0.435"
"2015/11/10 09:12:24","7","-1.05","9.673","102902","139.934019","patrol01","37.521207","1447114388325","20151110_091224","-0.4"
"2015/11/10 09:12:24","7","-0.997","9.613","102903","139.934019","patrol01","37.521198","1447114388426","20151110_091224","-0.387"
"2015/11/10 09:12:24","7","-0.999","9.605","102904","139.934018","patrol01","37.521188","1447114388527","20151110_091224","-0.457"
"2015/11/10 09:12:24","7","-0.999","9.482","102905","139.934017","patrol01","37.521179","1447114388627","20151110_091224","-0.47"
"2015/11/10 09:12:24","7","-0.994","9.636","102906","139.934017","patrol01","37.52117","1447114388723","20151110_091224","-0.5"
"2015/11/10 09:12:24","7","-0.911","9.602","102907","139.934016","patrol01","37.521161","1447114388824","20151110_091224","-0.509"
"2015/11/10 09:12:24","7","-0.974","9.528","102908","139.934016","patrol01","37.521151","1447114388924","20151110_091224","-0.483"
"2015/11/10 09:12:24","7","-0.998","9.616","102909","139.934015","patrol01","37.521142","1447114389025","20151110_091224","-0.445"
"2015/11/10 09:12:24","7","-0.936","9.712","102910","139.934014","patrol01","37.521133","1447114389126","20151110_091224","-0.445"
"2015/11/10 09:12:24","7","-0.998","9.751","102911","139.934014","patrol01","37.521123","1447114389227","20151110_091224","-0.399"
"2015/11/10 09:12:24","7","-0.94","9.676","102912","139.934013","patrol01","37.521114","1447114389327","20151110_091224","-0.423"
"2015/11/10 09:12:24","6","-0.941","9.646","102913","139.934013","patrol01","37.521105","1447114389423","20151110_091224","-0.411"
"2015/11/10 09:12:24","6","-0.912","9.674","102914","139.934012","patrol01","37.521095","1447114389524","20151110_091224","-0.336"
"2015/11/10 09:12:24","6","-0.9","9.664","102915","139.934012","patrol01","37.521086","1447114389624","20151110_091224","-0.387"
"2015/11/10 09:12:24","6","-0.911","9.684","102916","139.934011","patrol01","37.521076","1447114389725","20151110_091224","-0.457"
"2015/11/10 09:12:24","6","-0.896","9.782","102917","139.934011","patrol01","37.521066","1447114389826","20151110_091224","-0.398"
"2015/11/10 09:12:24","6","-0.866","9.669","102918","139.93401","patrol01","37.521057","1447114389927","20151110_091224","-0.488"
"2015/11/10 09:12:24","6","-0.807","9.749","102919","139.93401","patrol01","37.521047","1447114390027","20151110_091224","-0.514"
"2015/11/10 09:12:24","6","-0.783","9.789","102920","139.934009","patrol01","37.521038","1447114390123","20151110_091224","-0.398"
"2015/11/10 09:12:24","6","-0.787","9.966","102921","139.934009","patrol01","37.521029","1447114390224","20151110_091224","-0.383"
"2015/11/10 09:12:24","6","-0.799","9.994","102922","139.934008","patrol01","37.521019","1447114390324","20151110_091224","-0.482"
"2015/11/10 09:12:24","6","-0.831","9.812","102923","139.934006","patrol01","37.521011","1447114390425","20151110_091224","-0.522"
"2015/11/10 09:12:24","6","-0.879","9.801","102924","139.934004","patrol01","37.521003","1447114390526","20151110_091224","-0.508"
"2015/11/10 09:12:24","6","-0.881","9.753","102925","139.934002","patrol01","37.520994","1447114390626","20151110_091224","-0.331"
"2015/11/10 09:12:24","6","-0.834","9.743","102926","139.933999","patrol01","37.520986","1447114390727","20151110_091224","-0.359"
"2015/11/10 09:12:24","6","-0.811","9.775","102927","139.933997","patrol01","37.520979","1447114390823","20151110_091224","-0.434"
"2015/11/10 09:12:24","6","-0.85","9.634","102928","139.933995","patrol01","37.520971","1447114390924","20151110_091224","-0.484"
"2015/11/10 09:12:24","6","-0.815","9.62","102929","139.933992","patrol01","37.520963","1447114391024","20151110_091224","-0.446"
"2015/11/10 09:12:24","6","-0.728","9.85","102930","139.93399","patrol01","37.520955","1447114391125","20151110_091224","-0.386"
"2015/11/10 09:12:24","6","-0.707","9.759","102931","139.933988","patrol01","37.520947","1447114391226","20151110_091224","-0.365"
"2015/11/10 09:12:24","6","-0.783","9.642","102932","139.933985","patrol01","37.520939","1447114391326","20151110_091224","-0.395"
"2015/11/10 09:12:24","7","-0.725","9.888","102933","139.933983","patrol01","37.520928","1447114391427","20151110_091224","-0.384"
"2015/11/10 09:12:24","7","-0.738","9.662","102934","139.933981","patrol01","37.520918","1447114391523","20151110_091224","-0.318"
"2015/11/10 09:12:24","7","-0.791","9.673","102935","139.933979","patrol01","37.520907","1447114391623","20151110_091224","-0.324"
"2015/11/10 09:12:24","7","-0.664","9.813","102936","139.933977","patrol01","37.520896","1447114391724","20151110_091224","-0.425"
"2015/11/10 09:12:24","7","-0.749","9.77","102937","139.933974","patrol01","37.520885","1447114391825","20151110_091224","-0.404"
"2015/11/10 09:12:24","7","-0.783","9.783","102938","139.933972","patrol01","37.520874","1447114391926","20151110_091224","-0.443"
"2015/11/10 09:12:24","7","-0.857","9.587","102939","139.93397","patrol01","37.520863","1447114392026","20151110_091224","-0.503"
"2015/11/10 09:12:24","7","-0.835","9.629","102940","139.933968","patrol01","37.520852","1447114392127","20151110_091224","-0.44"
"2015/11/10 09:12:24","7","-0.744","9.695","102941","139.933966","patrol01","37.520842","1447114392223","20151110_091224","-0.47"
"2015/11/10 09:12:24","7","-0.764","9.597","102942","139.933963","patrol01","37.520831","1447114392323","20151110_091224","-0.561"
"2015/11/10 09:12:24","5","-0.745","9.647","102943","139.933961","patrol01","37.52082","1447114392424","20151110_091224","-0.613"
"2015/11/10 09:12:24","5","-0.667","9.85","102944","139.93396","patrol01","37.520808","1447114392526","20151110_091224","-0.564"
"2015/11/10 09:12:24","5","-0.733","9.913","102945","139.933958","patrol01","37.520796","1447114392625","20151110_091224","-0.459"
"2015/11/10 09:12:24","5","-0.772","9.741","102946","139.933956","patrol01","37.520784","1447114392726","20151110_091224","-0.361"
"2015/11/10 09:12:24","5","-0.764","9.723","102947","139.933954","patrol01","37.520773","1447114392827","20151110_091224","-0.218"
"2015/11/10 09:12:24","5","-0.745","9.647","102948","139.933952","patrol01","37.520761","1447114392923","20151110_091224","-0.201"
"2015/11/10 09:12:24","5","-0.692","9.582","102949","139.93395","patrol01","37.52075","1447114393023","20151110_091224","-0.13"
"2015/11/10 09:12:24","5","-0.63","9.613","102950","139.933948","patrol01","37.520738","1447114393124","20151110_091224","-0.211"
"2015/11/10 09:12:24","5","-0.624","9.548","102951","139.933946","patrol01","37.520726","1447114393225","20151110_091224","-0.261"
"2015/11/10 09:12:24","5","-0.686","9.516","102952","139.933944","patrol01","37.520714","1447114393325","20151110_091224","-0.266"
"2015/11/10 09:12:24","5","-0.657","9.454","102953","139.933942","patrol01","37.520702","1447114393426","20151110_091224","-0.101"
"2015/11/10 09:12:24","5","-0.682","9.477","102954","139.933941","patrol01","37.520691","1447114393527","20151110_091224","-0.117"
"2015/11/10 09:12:24","5","-0.666","9.514","102955","139.933939","patrol01","37.520679","1447114393623","20151110_091224","-0.027"
"2015/11/10 09:12:24","5","-0.453","10.073","102956","139.933937","patrol01","37.520667","1447114393723","20151110_091224","0.015"
"2015/11/10 09:12:24","5","-0.465","10.108","102957","139.933935","patrol01","37.520655","1447114393824","20151110_091224","0.015"
"2015/11/10 09:12:24","5","-0.654","9.857","102958","139.933933","patrol01","37.520643","1447114393925","20151110_091224","0.018"
"2015/11/10 09:12:24","5","-0.716","9.468","102959","139.933931","patrol01","37.520632","1447114394025","20151110_091224","0.048"
"2015/11/10 09:12:24","5","-0.7","8.978","102960","139.933929","patrol01","37.52062","1447114394126","20151110_091224","0.097"
"2015/11/10 09:12:24","5","-0.603","8.821","102961","139.933927","patrol01","37.520608","1447114394227","20151110_091224","0.063"
"2015/11/10 09:12:24","5","-0.377","9.538","102962","139.933925","patrol01","37.520596","1447114394328","20151110_091224","0.058"
"2015/11/10 09:12:24","5","-0.372","9.834","102963","139.933923","patrol01","37.520586","1447114394423","20151110_091224","0.068"
"2015/11/10 09:12:24","5","-0.57","10.045","102964","139.93392","patrol01","37.520576","1447114394524","20151110_091224","0.042"
"2015/11/10 09:12:24","5","-0.658","9.869","102965","139.933917","patrol01","37.520566","1447114394625","20151110_091224","-0.01"
"2015/11/10 09:12:24","5","-0.647","9.617","102966","139.933915","patrol01","37.520555","1447114394725","20151110_091224","-0.059"
"2015/11/10 09:12:24","5","-0.529","9.694","102967","139.933912","patrol01","37.520545","1447114394826","20151110_091224","-0.071"
"2015/11/10 09:12:24","5","-0.51","9.708","102968","139.933909","patrol01","37.520535","1447114394927","20151110_091224","-0.014"
"2015/11/10 09:12:24","5","-0.593","9.756","102969","139.933907","patrol01","37.520525","1447114395027","20151110_091224","-0.094"
"2015/11/10 09:12:24","5","-0.62","9.721","102970","139.933904","patrol01","37.520515","1447114395123","20151110_091224","-0.041"
"2015/11/10 09:12:24","5","-0.577","9.797","102971","139.933901","patrol01","37.520505","1447114395224","20151110_091224","-0.075"
"2015/11/10 09:12:24","5","-0.505","9.902","102972","139.933899","patrol01","37.520495","1447114395324","20151110_091224","-0.035"
"2015/11/10 09:12:24","6","-0.618","9.724","102973","139.933896","patrol01","37.520484","1447114395425","20151110_091224","-0.098"
"2015/11/10 09:12:24","6","-0.649","9.543","102974","139.933893","patrol01","37.520474","1447114395526","20151110_091224","-0.13"
"2015/11/10 09:12:24","6","-0.527","9.754","102975","139.933891","patrol01","37.520463","1447114395627","20151110_091224","-0.154"
"2015/11/10 09:12:24","6","-0.525","9.788","102976","139.933888","patrol01","37.520453","1447114395727","20151110_091224","-0.247"
"2015/11/10 09:12:24","6","-0.596","9.667","102977","139.933886","patrol01","37.520442","1447114395823","20151110_091224","-0.271"
"2015/11/10 09:12:24","6","-0.645","9.537","102978","139.933883","patrol01","37.520432","1447114395924","20151110_091224","-0.269"
"2015/11/10 09:12:24","6","-0.6","9.446","102979","139.93388","patrol01","37.520421","1447114396024","20151110_091224","-0.213"
"2015/11/10 09:12:24","6","-0.536","9.503","102980","139.933878","patrol01","37.52041","1447114396125","20151110_091224","-0.215"
"2015/11/10 09:12:24","6","-0.468","9.596","102981","139.933875","patrol01","37.5204","1447114396226","20151110_091224","-0.228"
"2015/11/10 09:12:24","6","-0.442","9.828","102982","139.933873","patrol01","37.520389","1447114396327","20151110_091224","-0.271"
"2015/11/10 09:12:24","6","-0.494","9.811","102983","139.933869","patrol01","37.520377","1447114396427","20151110_091224","-0.324"
"2015/11/10 09:12:24","6","-0.517","9.892","102984","139.933865","patrol01","37.520365","1447114396523","20151110_091224","-0.256"
"2015/11/10 09:12:24","6","-0.544","9.739","102985","139.933861","patrol01","37.520353","1447114396624","20151110_091224","-0.142"
"2015/11/10 09:12:24","6","-0.556","9.542","102986","139.933857","patrol01","37.520341","1447114396724","20151110_091224","-0.055"
"2015/11/10 09:12:24","6","-0.479","9.636","102987","139.933853","patrol01","37.520328","1447114396825","20151110_091224","-0.08"
"2015/11/10 09:12:24","6","-0.496","9.58","102988","139.933849","patrol01","37.520316","1447114396926","20151110_091224","-0.099"
"2015/11/10 09:12:24","6","-0.476","9.821","102989","139.933845","patrol01","37.520304","1447114397026","20151110_091224","-0.174"
"2015/11/10 09:12:24","6","-0.456","9.974","102990","139.933841","patrol01","37.520291","1447114397127","20151110_091224","-0.134"
"2015/11/10 09:12:24","6","-0.531","9.869","102991","139.933838","patrol01","37.520279","1447114397228","20151110_091224","-0.081"
"2015/11/10 09:12:24","6","-0.543","9.733","102992","139.933834","patrol01","37.520267","1447114397324","20151110_091224","-0.055"
"2015/11/10 09:12:24","5","-0.557","9.706","102993","139.93383","patrol01","37.520255","1447114397423","20151110_091224","-0.146"
"2015/11/10 09:12:24","5","-0.552","9.625","102994","139.933825","patrol01","37.520243","1447114397525","20151110_091224","-0.239"
"2015/11/10 09:12:24","5","-0.534","9.678","102995","139.933821","patrol01","37.520231","1447114397624","20151110_091224","-0.285"
"2015/11/10 09:12:24","5","-0.552","9.607","102996","139.933817","patrol01","37.520218","1447114397726","20151110_091224","-0.342"
"2015/11/10 09:12:24","5","-0.523","9.65","102997","139.933812","patrol01","37.520206","1447114397825","20151110_091224","-0.365"
"2015/11/10 09:12:24","5","-0.483","9.663","102998","139.933808","patrol01","37.520194","1447114397923","20151110_091224","-0.469"
"2015/11/10 09:12:24","5","-0.531","9.611","102999","139.933804","patrol01","37.520182","1447114398023","20151110_091224","-0.414"
"2015/11/10 09:12:24","5","-0.535","9.619","103000","139.9338","patrol01","37.52017","1447114398124","20151110_091224","-0.481"
"2015/11/10 09:12:24","5","-0.522","9.671","103001","139.933795","patrol01","37.520158","1447114398225","20151110_091224","-0.506"
"2015/11/10 09:12:24","5","-0.462","9.673","103002","139.933791","patrol01","37.520145","1447114398326","20151110_091224","-0.464"
"2015/11/10 09:12:24","5","-0.484","9.59","103003","139.933785","patrol01","37.520134","1447114398426","20151110_091224","-0.464"
"2015/11/10 09:12:24","5","-0.498","9.69","103004","139.933778","patrol01","37.520123","1447114398527","20151110_091224","-0.34"
"2015/11/10 09:12:24","5","-0.446","9.693","103005","139.933771","patrol01","37.520112","1447114398623","20151110_091224","-0.359"
"2015/11/10 09:12:24","5","-0.379","9.906","103006","139.933765","patrol01","37.520101","1447114398723","20151110_091224","-0.456"
"2015/11/10 09:12:24","5","-0.337","9.997","103007","139.933758","patrol01","37.520089","1447114398824","20151110_091224","-0.573"
"2015/11/10 09:12:24","5","-0.418","9.706","103008","139.933751","patrol01","37.520078","1447114398925","20151110_091224","-0.6"
"2015/11/10 09:12:24","5","-0.281","9.725","103009","139.933744","patrol01","37.520067","1447114399025","20151110_091224","-0.589"
"2015/11/10 09:12:24","5","-0.107","9.695","103010","139.933738","patrol01","37.520055","1447114399126","20151110_091224","-0.425"
"2015/11/10 09:12:24","5","-0.149","9.667","103011","139.933731","patrol01","37.520044","1447114399227","20151110_091224","-0.289"
"2015/11/10 09:12:24","5","-0.204","9.694","103012","139.933724","patrol01","37.520033","1447114399323","20151110_091224","-0.227"
"2015/11/10 09:12:24","6","-0.193","9.695","103013","139.933718","patrol01","37.520023","1447114399423","20151110_091224","-0.185"
"2015/11/10 09:12:24","6","-0.244","9.525","103014","139.933713","patrol01","37.520012","1447114399524","20151110_091224","-0.23"
"2015/11/10 09:12:24","6","-0.162","9.482","103015","139.933707","patrol01","37.520002","1447114399625","20151110_091224","-0.257"
"2015/11/10 09:12:24","6","-0.087","9.599","103016","139.933701","patrol01","37.519991","1447114399725","20151110_091224","-0.355"
"2015/11/10 09:12:24","6","-0.116","9.803","103017","139.933695","patrol01","37.519981","1447114399826","20151110_091224","-0.301"
"2015/11/10 09:12:24","6","-0.096","9.986","103018","139.933689","patrol01","37.51997","1447114399927","20151110_091224","-0.292"
"2015/11/10 09:12:24","6","-0.162","10.071","103019","139.933683","patrol01","37.51996","1447114400028","20151110_091224","-0.216"
"2015/11/10 09:12:24","6","-0.248","9.817","103020","139.933678","patrol01","37.51995","1447114400123","20151110_091224","-0.178"
"2015/11/10 09:12:24","6","-0.269","9.591","103021","139.933672","patrol01","37.51994","1447114400224","20151110_091224","-0.262"
"2015/11/10 09:12:24","6","-0.149","9.69","103022","139.933666","patrol01","37.519929","1447114400325","20151110_091224","-0.307"
"2015/11/10 09:12:24","6","-0.161","9.749","103023","139.93366","patrol01","37.519918","1447114400425","20151110_091224","-0.368"
"2015/11/10 09:12:24","6","-0.2","9.674","103024","139.933654","patrol01","37.519907","1447114400526","20151110_091224","-0.358"
"2015/11/10 09:12:24","6","-0.252","9.7","103025","139.933648","patrol01","37.519897","1447114400627","20151110_091224","-0.368"
"2015/11/10 09:12:24","6","-0.234","9.648","103026","139.933641","patrol01","37.519886","1447114400727","20151110_091224","-0.28"
"2015/11/10 09:12:24","6","-0.249","9.496","103027","139.933635","patrol01","37.519875","1447114400823","20151110_091224","-0.183"
"2015/11/10 09:12:24","6","-0.233","9.696","103028","139.933629","patrol01","37.519865","1447114400924","20151110_091224","-0.08"
"2015/11/10 09:12:24","6","-0.259","9.749","103029","139.933623","patrol01","37.519854","1447114401025","20151110_091224","-0.174"
"2015/11/10 09:12:24","6","-0.341","9.769","103030","139.933617","patrol01","37.519843","1447114401125","20151110_091224","-0.169"
"2015/11/10 09:12:24","6","-0.378","9.648","103031","139.93361","patrol01","37.519832","1447114401226","20151110_091224","-0.199"
"2015/11/10 09:12:24","6","-0.28","9.802","103032","139.933604","patrol01","37.519821","1447114401327","20151110_091224","-0.226"
"2015/11/10 09:12:24","6","-0.315","9.786","103033","139.933598","patrol01","37.519811","1447114401427","20151110_091224","-0.184"
"2015/11/10 09:12:24","6","-0.347","9.765","103034","139.933592","patrol01","37.5198","1447114401523","20151110_091224","-0.242"
"2015/11/10 09:12:24","6","-0.359","9.909","103035","139.933586","patrol01","37.51979","1447114401624","20151110_091224","-0.239"
"2015/11/10 09:12:24","6","-0.431","9.673","103036","139.933579","patrol01","37.519779","1447114401724","20151110_091224","-0.238"
"2015/11/10 09:12:24","6","-0.398","9.61","103037","139.933573","patrol01","37.519769","1447114401825","20151110_091224","-0.297"
"2015/11/10 09:12:24","6","-0.374","9.566","103038","139.933566","patrol01","37.519758","1447114401926","20151110_091224","-0.268"
"2015/11/10 09:12:24","6","-0.329","9.678","103039","139.93356","patrol01","37.519747","1447114402027","20151110_091224","-0.303"
"2015/11/10 09:12:24","6","-0.343","9.776","103040","139.933554","patrol01","37.519737","1447114402127","20151110_091224","-0.342"
"2015/11/10 09:12:24","6","-0.441","9.806","103041","139.933548","patrol01","37.519727","1447114402223","20151110_091224","-0.326"
"2015/11/10 09:12:24","6","-0.408","9.632","103042","139.933541","patrol01","37.519716","1447114402324","20151110_091224","-0.288"
"2015/11/10 09:12:24","7","-0.338","9.862","103043","139.933535","patrol01","37.519705","1447114402424","20151110_091224","-0.354"
"2015/11/10 09:12:24","7","-0.36","9.911","103044","139.933529","patrol01","37.519694","1447114402525","20151110_091224","-0.396"
"2015/11/10 09:12:24","7","-0.426","9.593","103045","139.933522","patrol01","37.519683","1447114402626","20151110_091224","-0.423"
"2015/11/10 09:12:24","7","-0.442","9.596","103046","139.933516","patrol01","37.519672","1447114402727","20151110_091224","-0.433"
"2015/11/10 09:12:24","7","-0.283","9.681","103047","139.93351","patrol01","37.51966","1447114402827","20151110_091224","-0.411"
"2015/11/10 09:12:24","7","-0.287","9.71","103048","139.933504","patrol01","37.51965","1447114402923","20151110_091224","-0.446"
"2015/11/10 09:12:24","7","-0.362","9.823","103049","139.933497","patrol01","37.519639","1447114403024","20151110_091224","-0.371"
"2015/11/10 09:12:24","7","-0.36","9.807","103050","139.933491","patrol01","37.519628","1447114403124","20151110_091224","-0.397"
"2015/11/10 09:12:24","7","-0.405","9.723","103051","139.933485","patrol01","37.519616","1447114403225","20151110_091224","-0.333"
"2015/11/10 09:12:24","7","-0.384","9.582","103052","139.933478","patrol01","37.519605","1447114403326","20151110_091224","-0.242"
"2015/11/10 09:12:24","7","-0.253","9.851","103053","139.933472","patrol01","37.519594","1447114403427","20151110_091224","-0.124"
"2015/11/10 09:12:24","7","-0.302","9.998","103054","139.933466","patrol01","37.519582","1447114403527","20151110_091224","-0.131"
"2015/11/10 09:12:24","7","-0.305","9.848","103055","139.933461","patrol01","37.519571","1447114403623","20151110_091224","-0.147"
"2015/11/10 09:12:24","7","-0.356","9.943","103056","139.933455","patrol01","37.51956","1447114403724","20151110_091224","-0.073"
"2015/11/10 09:12:24","7","-0.405","9.656","103057","139.933449","patrol01","37.519548","1447114403824","20151110_091224","-0.09"
"2015/11/10 09:12:24","7","-0.436","9.625","103058","139.933443","patrol01","37.519537","1447114403925","20151110_091224","-0.09"
"2015/11/10 09:12:24","7","-0.34","9.74","103059","139.933437","patrol01","37.519525","1447114404026","20151110_091224","-0.189"
"2015/11/10 09:12:24","7","-0.33","9.789","103060","139.933432","patrol01","37.519514","1447114404126","20151110_091224","-0.189"
"2015/11/10 09:12:24","7","-0.37","9.561","103061","139.933426","patrol01","37.519502","1447114404227","20151110_091224","-0.065"
"2015/11/10 09:12:24","7","-0.311","9.793","103062","139.93342","patrol01","37.519491","1447114404323","20151110_091224","-0.024"
"2015/11/10 09:12:24","8","-0.254","9.969","103063","139.933415","patrol01","37.519479","1447114404424","20151110_091224","0.09"
"2015/11/10 09:12:24","8","-0.229","10.068","103064","139.933411","patrol01","37.519467","1447114404524","20151110_091224","0.036"
"2015/11/10 09:12:24","8","-0.502","9.471","103065","139.933406","patrol01","37.519455","1447114404625","20151110_091224","-0.205"
"2015/11/10 09:12:24","8","-0.402","9.312","103066","139.933402","patrol01","37.519443","1447114404726","20151110_091224","-0.199"
"2015/11/10 09:12:24","8","-0.124","9.375","103067","139.933397","patrol01","37.519431","1447114404826","20151110_091224","-0.298"
"2015/11/10 09:12:24","8","-0.249","9.531","103068","139.933393","patrol01","37.519419","1447114404927","20151110_091224","-0.086"
"2015/11/10 09:12:24","8","-0.353","9.578","103069","139.933388","patrol01","37.519408","1447114405023","20151110_091224","0.036"
"2015/11/10 09:12:24","8","-0.394","9.515","103070","139.933384","patrol01","37.519396","1447114405123","20151110_091224","0.093"
"2015/11/10 09:12:24","8","-0.313","9.463","103071","139.933379","patrol01","37.519383","1447114405224","20151110_091224","0.13"
"2015/11/10 09:12:24","8","-0.323","9.377","103072","139.933375","patrol01","37.519371","1447114405325","20151110_091224","0.0"
"2015/11/10 09:12:24","9","-0.352","9.33","103073","139.933371","patrol01","37.51936","1447114405426","20151110_091224","-0.076"
"2015/11/10 09:12:24","9","-0.221","9.559","103074","139.933366","patrol01","37.519349","1447114405526","20151110_091224","-0.077"
"2015/11/10 09:12:24","9","-0.215","9.834","103075","139.933362","patrol01","37.519338","1447114405627","20151110_091224","-0.075"
"2015/11/10 09:12:24","9","-0.246","9.916","103076","139.933358","patrol01","37.519328","1447114405723","20151110_091224","-0.005"
"2015/11/10 09:12:24","9","-0.296","9.919","103077","139.933354","patrol01","37.519316","1447114405823","20151110_091224","-0.073"
"2015/11/10 09:12:24","9","-0.299","9.831","103078","139.93335","patrol01","37.519305","1447114405924","20151110_091224","-0.096"
"2015/11/10 09:12:24","9","-0.242","9.905","103079","139.933346","patrol01","37.519294","1447114406025","20151110_091224","-0.128"
"2015/11/10 09:12:24","9","-0.26","9.893","103080","139.933341","patrol01","37.519283","1447114406125","20151110_091224","-0.156"
"2015/11/10 09:12:24","9","-0.279","9.958","103081","139.933337","patrol01","37.519272","1447114406226","20151110_091224","-0.147"
"2015/11/10 09:12:24","9","-0.292","9.857","103082","139.933333","patrol01","37.519261","1447114406327","20151110_091224","-0.209"
"2015/11/10 09:12:24","10","-0.294","9.803","103083","139.933328","patrol01","37.519251","1447114406423","20151110_091224","-0.207"
"2015/11/10 09:12:24","10","-0.218","9.898","103084","139.933322","patrol01","37.51924","1447114406523","20151110_091224","-0.191"
"2015/11/10 09:12:24","10","-0.22","9.844","103085","139.933316","patrol01","37.519228","1447114406624","20151110_091224","-0.255"
"2015/11/10 09:12:24","10","-0.321","9.635","103086","139.93331","patrol01","37.519217","1447114406725","20151110_091224","-0.281"
"2015/11/10 09:12:24","10","-0.265","9.651","103087","139.933305","patrol01","37.519206","1447114406825","20151110_091224","-0.253"
"2015/11/10 09:12:24","10","-0.17","9.637","103088","139.933299","patrol01","37.519195","1447114406926","20151110_091224","-0.209"
"2015/11/10 09:12:24","10","-0.238","9.637","103089","139.933293","patrol01","37.519184","1447114407027","20151110_091224","-0.183"
"2015/11/10 09:12:24","10","-0.219","9.72","103090","139.933287","patrol01","37.519173","1447114407127","20151110_091224","-0.078"
"2015/11/10 09:12:24","10","-0.246","9.762","103091","139.933282","patrol01","37.519162","1447114407223","20151110_091224","-0.146"
"2015/11/10 09:12:24","10","-0.267","9.674","103092","139.933276","patrol01","37.519151","1447114407324","20151110_091224","-0.138"
"2015/11/10 09:12:24","10","-0.199","9.823","103093","139.933275","patrol01","37.51914","1447114407425","20151110_091224","-0.116"
"2015/11/10 09:12:24","10","-0.257","9.695","103094","139.933274","patrol01","37.519129","1447114407525","20151110_091224","-0.071"
"2015/11/10 09:12:24","10","-0.325","9.556","103095","139.933274","patrol01","37.519118","1447114407626","20151110_091224","-0.072"
"2015/11/10 09:12:24","10","-0.331","9.476","103096","139.933274","patrol01","37.519107","1447114407727","20151110_091224","-0.078"
"2015/11/10 09:12:24","10","-0.287","9.604","103097","139.933274","patrol01","37.519096","1447114407827","20151110_091224","-0.036"
"2015/11/10 09:12:24","10","-0.243","9.785","103098","139.933273","patrol01","37.519085","1447114407923","20151110_091224","-0.061"
"2015/11/10 09:12:24","10","-0.254","9.857","103099","139.933273","patrol01","37.519074","1447114408024","20151110_091224","-0.091"
"2015/11/10 09:12:24","10","-0.321","9.792","103100","139.933273","patrol01","37.519063","1447114408124","20151110_091224","-0.11"
"2015/11/10 09:12:24","10","-0.29","9.735","103101","139.933272","patrol01","37.519052","1447114408225","20151110_091224","-0.093"
"2015/11/10 09:12:24","10","-0.201","9.763","103102","139.933272","patrol01","37.519041","1447114408326","20151110_091224","-0.174"
"2015/11/10 09:12:24","9","-0.231","9.699","103103","139.933269","patrol01","37.519031","1447114408427","20151110_091224","-0.125"
"2015/11/10 09:12:24","9","-0.251","9.608","103104","139.933265","patrol01","37.51902","1447114408527","20151110_091224","-0.074"
"2015/11/10 09:12:24","9","-0.265","9.474","103105","139.933262","patrol01","37.51901","1447114408623","20151110_091224","0.031"
"2015/11/10 09:12:24","9","-0.188","9.636","103106","139.933258","patrol01","37.519","1447114408724","20151110_091224","0.013"
"2015/11/10 09:12:24","9","-0.132","9.651","103107","139.933255","patrol01","37.518989","1447114408824","20151110_091224","0.08"
"2015/11/10 09:12:24","9","-0.164","9.822","103108","139.933251","patrol01","37.518979","1447114408925","20151110_091224","0.023"
"2015/11/10 09:12:24","9","-0.252","9.722","103109","139.933247","patrol01","37.518968","1447114409026","20151110_091224","0.025"
"2015/11/10 09:12:24","9","-0.241","9.79","103110","139.933244","patrol01","37.518958","1447114409127","20151110_091224","0.124"
"2015/11/10 09:12:24","9","-0.199","9.775","103111","139.93324","patrol01","37.518947","1447114409227","20151110_091224","0.11"
"2015/11/10 09:12:24","9","-0.241","9.679","103112","139.933237","patrol01","37.518937","1447114409323","20151110_091224","0.149"
"2015/11/10 09:12:24","7","-0.234","9.689","103113","139.933234","patrol01","37.518926","1447114409424","20151110_091224","0.078"
"2015/11/10 09:12:24","7","-0.134","9.781","103114","139.933231","patrol01","37.518914","1447114409524","20151110_091224","0.043"
"2015/11/10 09:12:24","7","-0.096","9.831","103115","139.933229","patrol01","37.518903","1447114409625","20151110_091224","0.015"
"2015/11/10 09:12:24","7","-0.097","9.831","103116","139.933226","patrol01","37.518891","1447114409726","20151110_091224","-0.135"
"2015/11/10 09:12:24","7","-0.096","9.688","103117","139.933224","patrol01","37.51888","1447114409826","20151110_091224","-0.075"
"2015/11/10 09:12:24","7","-0.035","9.608","103118","139.933221","patrol01","37.518868","1447114409927","20151110_091224","-0.132"
"2015/11/10 09:12:24","7","-0.001","9.627","103119","139.933219","patrol01","37.518857","1447114410023","20151110_091224","-0.126"
"2015/11/10 09:12:24","7","0.083","9.64","103120","139.933217","patrol01","37.518845","1447114410124","20151110_091224","-0.117"
"2015/11/10 09:12:24","7","0.045","9.578","103121","139.933214","patrol01","37.518834","1447114410224","20151110_091224","-0.071"
"2015/11/10 09:12:24","7","0.069","9.646","103122","139.933212","patrol01","37.518822","1447114410325","20151110_091224","-0.098"
"2015/11/10 09:12:24","6","0.106","9.743","103123","139.933209","patrol01","37.518812","1447114410426","20151110_091224","-0.138"
"2015/11/10 09:12:24","6","0.098","9.779","103124","139.933206","patrol01","37.518802","1447114410526","20151110_091224","-0.165"
"2015/11/10 09:12:24","6","0.039","9.66","103125","139.933203","patrol01","37.518791","1447114410627","20151110_091224","-0.122"
"2015/11/10 09:12:24","6","0.031","9.554","103126","139.9332","patrol01","37.518782","1447114410723","20151110_091224","-0.129"
"2015/11/10 09:12:24","6","0.097","9.614","103127","139.933198","patrol01","37.518771","1447114410823","20151110_091224","-0.05"
"2015/11/10 09:12:24","6","0.166","9.763","103128","139.933195","patrol01","37.518761","1447114410924","20151110_091224","-0.149"
"2015/11/10 09:12:24","6","0.151","9.917","103129","139.933192","patrol01","37.518751","1447114411025","20151110_091224","-0.185"
"2015/11/10 09:12:24","6","0.062","9.756","103130","139.933189","patrol01","37.518741","1447114411126","20151110_091224","-0.161"
"2015/11/10 09:12:24","6","-0.013","9.645","103131","139.933186","patrol01","37.51873","1447114411226","20151110_091224","-0.278"
"2015/11/10 09:12:24","6","0.097","9.789","103132","139.933184","patrol01","37.51872","1447114411327","20151110_091224","-0.325"
"2015/11/10 09:12:24","7","0.209","9.926","103133","139.933183","patrol01","37.518711","1447114411423","20151110_091224","-0.337"
"2015/11/10 09:12:24","7","0.085","9.699","103134","139.933182","patrol01","37.5187","1447114411528","20151110_091224","-0.322"
"2015/11/10 09:12:24","7","0.043","9.588","103135","139.933182","patrol01","37.518691","1447114411624","20151110_091224","-0.217"
"2015/11/10 09:12:24","7","0.098","9.651","103136","139.933181","patrol01","37.518681","1447114411723","20151110_091224","-0.235"
"2015/11/10 09:12:24","7","0.129","9.649","103137","139.933181","patrol01","37.518671","1447114411826","20151110_091224","-0.187"
"2015/11/10 09:12:24","7","0.165","9.748","103138","139.933181","patrol01","37.518662","1447114411925","20151110_091224","-0.227"
"2015/11/10 09:12:24","7","0.179","9.739","103139","139.93318","patrol01","37.518652","1447114412027","20151110_091224","-0.102"
"2015/11/10 09:12:24","7","0.122","9.676","103140","139.93318","patrol01","37.518643","1447114412123","20151110_091224","-0.067"
"2015/11/10 09:12:24","7","0.132","9.596","103141","139.933179","patrol01","37.518633","1447114412223","20151110_091224","-0.16"
"2015/11/10 09:12:24","7","0.188","9.708","103142","139.933179","patrol01","37.518623","1447114412324","20151110_091224","-0.155"
"2015/11/10 09:12:24","6","0.244","9.787","103143","139.933179","patrol01","37.518613","1447114412425","20151110_091224","-0.163"
"2015/11/10 09:12:24","6","0.175","9.621","103144","139.933178","patrol01","37.518604","1447114412525","20151110_091224","-0.224"
"2015/11/10 09:12:24","6","0.175","9.68","103145","139.933177","patrol01","37.518594","1447114412626","20151110_091224","-0.28"
"2015/11/10 09:12:24","6","0.29","9.935","103146","139.933177","patrol01","37.518584","1447114412727","20151110_091224","-0.31"
"2015/11/10 09:12:24","6","0.217","9.79","103147","139.933176","patrol01","37.518574","1447114412828","20151110_091224","-0.31"
"2015/11/10 09:12:24","6","0.118","9.671","103148","139.933175","patrol01","37.518565","1447114412923","20151110_091224","-0.215"
"2015/11/10 09:12:24","6","0.199","9.571","103149","139.933175","patrol01","37.518556","1447114413024","20151110_091224","-0.144"
"2015/11/10 09:12:24","6","0.211","9.485","103150","139.933174","patrol01","37.518546","1447114413125","20151110_091224","-0.207"
"2015/11/10 09:12:24","6","0.172","9.464","103151","139.933174","patrol01","37.518536","1447114413225","20151110_091224","-0.315"
"2015/11/10 09:12:24","6","0.146","9.439","103152","139.933173","patrol01","37.518526","1447114413326","20151110_091224","-0.417"
"2015/11/10 09:12:24","6","0.207","9.586","103153","139.933174","patrol01","37.518517","1447114413427","20151110_091224","-0.417"
"2015/11/10 09:12:24","6","0.268","9.722","103154","139.933174","patrol01","37.518507","1447114413523","20151110_091224","-0.43"
"2015/11/10 09:12:24","6","0.296","9.784","103155","139.933175","patrol01","37.518497","1447114413623","20151110_091224","-0.396"
"2015/11/10 09:12:24","6","0.295","9.686","103156","139.933175","patrol01","37.518488","1447114413724","20151110_091224","-0.397"
"2015/11/10 09:12:24","6","0.261","9.735","103157","139.933176","patrol01","37.518478","1447114413825","20151110_091224","-0.43"
"2015/11/10 09:12:24","6","0.228","9.637","103158","139.933177","patrol01","37.518468","1447114413925","20151110_091224","-0.382"
"2015/11/10 09:12:24","6","0.345","9.704","103159","139.933177","patrol01","37.518458","1447114414026","20151110_091224","-0.378"
"2015/11/10 09:12:24","6","0.404","9.842","103160","139.933178","patrol01","37.518448","1447114414127","20151110_091224","-0.474"
"2015/11/10 09:12:24","6","0.443","9.701","103161","139.933178","patrol01","37.518438","1447114414227","20151110_091224","-0.471"
"2015/11/10 09:12:24","6","0.423","9.558","103162","139.933179","patrol01","37.518429","1447114414323","20151110_091224","-0.387"
"2015/11/10 09:12:24","5","0.537","9.588","103163","139.933178","patrol01","37.51842","1447114414424","20151110_091224","-0.287"
"2015/11/10 09:12:24","5","0.614","9.509","103164","139.933178","patrol01","37.518412","1447114414524","20151110_091224","-0.279"
"2015/11/10 09:12:24","5","0.673","9.64","103165","139.933177","patrol01","37.518403","1447114414625","20151110_091224","-0.385"
"2015/11/10 09:12:24","5","0.789","9.851","103166","139.933176","patrol01","37.518394","1447114414726","20151110_091224","-0.382"
"2015/11/10 09:12:24","5","0.713","9.737","103167","139.933176","patrol01","37.518386","1447114414827","20151110_091224","-0.454"
"2015/11/10 09:12:24","5","0.683","9.579","103168","139.933175","patrol01","37.518377","1447114414927","20151110_091224","-0.456"
"2015/11/10 09:12:24","5","0.775","9.654","103169","139.933174","patrol01","37.518369","1447114415023","20151110_091224","-0.51"
"2015/11/10 09:12:24","5","0.854","9.542","103170","139.933173","patrol01","37.51836","1447114415124","20151110_091224","-0.452"
"2015/11/10 09:12:24","5","0.853","9.333","103171","139.933173","patrol01","37.518352","1447114415224","20151110_091224","-0.423"
"2015/11/10 09:12:24","5","0.986","9.421","103172","139.933172","patrol01","37.518343","1447114415325","20151110_091224","-0.431"
"2015/11/10 09:12:24","5","1.094","9.61","103173","139.933172","patrol01","37.518336","1447114415426","20151110_091224","-0.377"
"2015/11/10 09:12:24","5","1.15","9.605","103174","139.933171","patrol01","37.51833","1447114415526","20151110_091224","-0.332"
"2015/11/10 09:12:24","5","1.191","9.734","103175","139.933171","patrol01","37.518323","1447114415627","20151110_091224","-0.306"
"2015/11/10 09:12:24","5","1.202","9.689","103176","139.93317","patrol01","37.518317","1447114415723","20151110_091224","-0.254"
"2015/11/10 09:12:24","5","1.169","9.708","103177","139.93317","patrol01","37.518311","1447114415824","20151110_091224","-0.327"
"2015/11/10 09:12:24","5","1.202","9.794","103178","139.93317","patrol01","37.518304","1447114415924","20151110_091224","-0.425"
"2015/11/10 09:12:24","5","1.267","9.851","103179","139.933169","patrol01","37.518298","1447114416025","20151110_091224","-0.39"
"2015/11/10 09:12:24","5","1.375","9.686","103180","139.933169","patrol01","37.518291","1447114416126","20151110_091224","-0.315"
"2015/11/10 09:12:24","5","1.444","9.768","103181","139.933168","patrol01","37.518285","1447114416226","20151110_091224","-0.386"
"2015/11/10 09:12:24","5","1.448","9.773","103182","139.933168","patrol01","37.518278","1447114416327","20151110_091224","-0.359"
"2015/11/10 09:12:24","5","1.537","9.782","103183","139.933168","patrol01","37.518274","1447114416423","20151110_091224","-0.309"
"2015/11/10 09:12:24","5","1.557","9.649","103184","139.933167","patrol01","37.51827","1447114416524","20151110_091224","-0.367"
"2015/11/10 09:12:24","5","1.53","9.693","103185","139.933167","patrol01","37.518265","1447114416624","20151110_091224","-0.37"
"2015/11/10 09:12:24","5","1.551","9.624","103186","139.933166","patrol01","37.518261","1447114416725","20151110_091224","-0.246"
"2015/11/10 09:12:24","5","1.619","9.474","103187","139.933166","patrol01","37.518256","1447114416826","20151110_091224","-0.144"
"2015/11/10 09:12:24","5","1.766","9.712","103188","139.933166","patrol01","37.518252","1447114416926","20151110_091224","-0.231"
"2015/11/10 09:12:24","5","1.847","9.604","103189","139.933165","patrol01","37.518247","1447114417027","20151110_091224","-0.283"
"2015/11/10 09:12:24","5","1.927","9.641","103190","139.933165","patrol01","37.518243","1447114417123","20151110_091224","-0.289"
"2015/11/10 09:12:24","5","1.96","9.602","103191","139.933164","patrol01","37.518239","1447114417223","20151110_091224","-0.358"
"2015/11/10 09:12:24","5","1.82","9.549","103192","139.933164","patrol01","37.518234","1447114417324","20151110_091224","-0.404"
"2015/11/10 09:12:24","5","1.796","9.604","103193","139.933164","patrol01","37.518231","1447114417425","20151110_091224","-0.421"
"2015/11/10 09:12:24","5","1.852","9.73","103194","139.933165","patrol01","37.518228","1447114417525","20151110_091224","-0.273"
"2015/11/10 09:12:24","5","1.813","9.674","103195","139.933165","patrol01","37.518225","1447114417626","20151110_091224","-0.348"
"2015/11/10 09:12:24","5","1.668","9.433","103196","139.933165","patrol01","37.518222","1447114417727","20151110_091224","-0.525"
"2015/11/10 09:12:24","5","1.661","9.429","103197","139.933165","patrol01","37.518219","1447114417823","20151110_091224","-0.636"
"2015/11/10 09:12:24","5","1.735","9.565","103198","139.933166","patrol01","37.518216","1447114417923","20151110_091224","-0.721"
"2015/11/10 09:12:24","5","1.743","9.574","103199","139.933166","patrol01","37.518213","1447114418024","20151110_091224","-0.64"
"2015/11/10 09:12:24","5","1.744","9.688","103200","139.933166","patrol01","37.51821","1447114418125","20151110_091224","-0.481"
"2015/11/10 09:12:24","5","1.82","9.577","103201","139.933167","patrol01","37.518207","1447114418226","20151110_091224","-0.487"
"2015/11/10 09:12:24","5","1.841","9.532","103202","139.933167","patrol01","37.518204","1447114418326","20151110_091224","-0.572"
"2015/11/10 09:12:24","5","1.862","9.59","103203","139.933166","patrol01","37.518204","1447114418427","20151110_091224","-0.593"
"2015/11/10 09:12:24","5","1.815","9.638","103204","139.933165","patrol01","37.518203","1447114418523","20151110_091224","-0.633"
"2015/11/10 09:12:24","5","1.822","9.728","103205","139.933165","patrol01","37.518203","1447114418623","20151110_091224","-0.622"
"2015/11/10 09:12:24","5","1.732","9.68","103206","139.933164","patrol01","37.518202","1447114418724","20151110_091224","-0.634"
"2015/11/10 09:12:24","5","1.746","9.65","103207","139.933163","patrol01","37.518202","1447114418825","20151110_091224","-0.556"
"2015/11/10 09:12:24","5","1.692","9.607","103208","139.933162","patrol01","37.518202","1447114418925","20151110_091224","-0.499"
"2015/11/10 09:12:24","5","1.588","9.691","103209","139.933161","patrol01","37.518201","1447114419026","20151110_091224","-0.514"
"2015/11/10 09:12:24","5","1.392","9.655","103210","139.933161","patrol01","37.518201","1447114419127","20151110_091224","-0.551"
"2015/11/10 09:12:24","5","1.177","9.67","103211","139.93316","patrol01","37.5182","1447114419223","20151110_091224","-0.543"
"2015/11/10 09:12:24","5","0.945","9.666","103212","139.933159","patrol01","37.5182","1447114419323","20151110_091224","-0.548"
"2015/11/10 09:12:24","5","0.798","9.634","103213","139.933159","patrol01","37.518199","1447114419424","20151110_091224","-0.519"
"2015/11/10 09:12:24","5","0.669","9.624","103214","139.933159","patrol01","37.518198","1447114419525","20151110_091224","-0.515"
"2015/11/10 09:12:24","5","0.557","9.638","103215","139.93316","patrol01","37.518198","1447114419625","20151110_091224","-0.543"
"2015/11/10 09:12:24","5","0.533","9.711","103216","139.93316","patrol01","37.518197","1447114419726","20151110_091224","-0.529"
"2015/11/10 09:12:24","5","0.498","9.688","103217","139.93316","patrol01","37.518196","1447114419827","20151110_091224","-0.513"
"2015/11/10 09:12:24","5","0.427","9.669","103218","139.93316","patrol01","37.518195","1447114419927","20151110_091224","-0.507"
"2015/11/10 09:12:24","5","0.323","9.683","103219","139.93316","patrol01","37.518194","1447114420023","20151110_091224","-0.512"
"2015/11/10 09:12:24","5","0.201","9.657","103220","139.933161","patrol01","37.518194","1447114420124","20151110_091224","-0.495"
"2015/11/10 09:12:24","5","0.111","9.658","103221","139.933161","patrol01","37.518193","1447114420225","20151110_091224","-0.497"
"2015/11/10 09:12:24","5","0.086","9.68","103222","139.933161","patrol01","37.518192","1447114420325","20151110_091224","-0.497"
"2015/11/10 09:12:24","5","0.122","9.695","103223","139.933161","patrol01","37.518192","1447114420426","20151110_091224","-0.494"
"2015/11/10 09:12:24","5","0.224","9.703","103224","139.93316","patrol01","37.518192","1447114420527","20151110_091224","-0.491"
"2015/11/10 09:12:24","5","0.312","9.669","103225","139.93316","patrol01","37.518193","1447114420627","20151110_091224","-0.496"
"2015/11/10 09:12:24","5","0.358","9.654","103226","139.933159","patrol01","37.518193","1447114420723","20151110_091224","-0.481"
"2015/11/10 09:12:24","5","0.361","9.672","103227","139.933159","patrol01","37.518193","1447114420825","20151110_091224","-0.479"
"2015/11/10 09:12:24","5","0.345","9.665","103228","139.933159","patrol01","37.518193","1447114420924","20151110_091224","-0.489"
"2015/11/10 09:12:24","5","0.356","9.677","103229","139.933158","patrol01","37.518193","1447114421025","20151110_091224","-0.498"
"2015/11/10 09:12:24","5","0.327","9.688","103230","139.933158","patrol01","37.518194","1447114421126","20151110_091224","-0.487"
"2015/11/10 09:12:24","5","0.034","9.703","103231","139.933157","patrol01","37.518194","1447114421227","20151110_091224","-0.485"
"2015/11/10 09:12:24","5","-0.308","9.705","103232","139.933157","patrol01","37.518194","1447114421327","20151110_091224","-0.47"
"2015/11/10 09:12:24","5","-0.466","9.662","103233","139.933157","patrol01","37.518194","1447114421423","20151110_091224","-0.47"
"2015/11/10 09:12:24","5","-0.448","9.675","103234","139.933157","patrol01","37.518194","1447114421524","20151110_091224","-0.487"
"2015/11/10 09:12:24","5","-0.421","9.69","103235","139.933157","patrol01","37.518194","1447114421624","20151110_091224","-0.491"
"2015/11/10 09:12:24","5","-0.418","9.653","103236","139.933157","patrol01","37.518194","1447114421725","20151110_091224","-0.482"
"2015/11/10 09:12:24","5","-0.41","9.693","103237","139.933157","patrol01","37.518194","1447114421826","20151110_091224","-0.472"
"2015/11/10 09:12:24","5","-0.424","9.672","103238","139.933158","patrol01","37.518195","1447114421926","20151110_091224","-0.479"
"2015/11/10 09:12:24","5","-0.439","9.679","103239","139.933158","patrol01","37.518195","1447114422027","20151110_091224","-0.479"
"2015/11/10 09:12:24","5","-0.433","9.681","103240","139.933158","patrol01","37.518195","1447114422123","20151110_091224","-0.482"
"2015/11/10 09:12:24","5","-0.429","9.674","103241","139.933158","patrol01","37.518195","1447114422224","20151110_091224","-0.482"
"2015/11/10 09:12:24","5","-0.431","9.676","103242","139.933158","patrol01","37.518195","1447114422324","20151110_091224","-0.477"
"2015/11/10 09:12:24","5","-0.435","9.683","103243","139.933159","patrol01","37.518194","1447114422425","20151110_091224","-0.479"
"2015/11/10 09:12:24","5","-0.425","9.679","103244","139.93316","patrol01","37.518194","1447114422526","20151110_091224","-0.48"
"2015/11/10 09:12:24","5","-0.412","9.681","103245","139.933161","patrol01","37.518193","1447114422626","20151110_091224","-0.485"
"2015/11/10 09:12:24","5","-0.433","9.674","103246","139.933162","patrol01","37.518193","1447114422727","20151110_091224","-0.477"
"2015/11/10 09:12:24","5","-0.456","9.67","103247","139.933162","patrol01","37.518192","1447114422823","20151110_091224","-0.468"
"2015/11/10 09:12:24","5","-0.44","9.683","103248","139.933163","patrol01","37.518191","1447114422924","20151110_091224","-0.475"
"2015/11/10 09:12:24","5","-0.414","9.68","103249","139.933164","patrol01","37.518191","1447114423024","20151110_091224","-0.481"
"2015/11/10 09:12:24","5","-0.424","9.681","103250","139.933165","patrol01","37.51819","1447114423125","20151110_091224","-0.474"
"2015/11/10 09:12:24","5","-0.441","9.679","103251","139.933166","patrol01","37.51819","1447114423226","20151110_091224","-0.472"
"2015/11/10 09:12:24","5","-0.434","9.68","103252","139.933167","patrol01","37.518189","1447114423326","20151110_091224","-0.473"
"2015/11/10 09:12:24","5","-0.423","9.683","103253","139.933167","patrol01","37.518189","1447114423427","20151110_091224","-0.476"
"2015/11/10 09:12:24","5","-0.432","9.679","103254","139.933168","patrol01","37.518188","1447114423523","20151110_091224","-0.476"
"2015/11/10 09:12:24","5","-0.439","9.681","103255","139.933168","patrol01","37.518188","1447114423623","20151110_091224","-0.473"
"2015/11/10 09:12:24","5","-0.432","9.684","103256","139.933169","patrol01","37.518187","1447114423724","20151110_091224","-0.472"
"2015/11/10 09:12:24","5","-0.431","9.681","103257","139.933169","patrol01","37.518187","1447114423825","20151110_091224","-0.472"
"2015/11/10 09:12:24","5","-0.442","9.683","103258","139.933169","patrol01","37.518187","1447114423926","20151110_091224","-0.475"
"2015/11/10 09:12:24","5","-0.437","9.682","103259","139.93317","patrol01","37.518186","1447114424026","20151110_091224","-0.474"
"2015/11/10 09:12:24","5","-0.429","9.684","103260","139.93317","patrol01","37.518186","1447114424127","20151110_091224","-0.475"
"2015/11/10 09:12:24","5","-0.433","9.683","103261","139.933171","patrol01","37.518185","1447114424223","20151110_091224","-0.473"
"2015/11/10 09:12:24","5","-0.433","9.682","103262","139.933171","patrol01","37.518185","1447114424323","20151110_091224","-0.475"
"2015/11/10 09:12:24","5","-0.432","9.683","103263","139.933171","patrol01","37.518185","1447114424424","20151110_091224","-0.477"
"2015/11/10 09:12:24","5","-0.429","9.68","103264","139.933172","patrol01","37.518184","1447114424525","20151110_091224","-0.475"
"2015/11/10 09:12:24","5","-0.433","9.683","103265","139.933172","patrol01","37.518184","1447114424626","20151110_091224","-0.472"
"2015/11/10 09:12:24","5","-0.431","9.685","103266","139.933173","patrol01","37.518183","1447114424726","20151110_091224","-0.473"
"2015/11/10 09:12:24","5","-0.43","9.684","103267","139.933173","patrol01","37.518183","1447114424827","20151110_091224","-0.475"
"2015/11/10 09:12:24","5","-0.434","9.684","103268","139.933174","patrol01","37.518182","1447114424923","20151110_091224","-0.476"
"2015/11/10 09:12:24","5","-0.435","9.681","103269","139.933174","patrol01","37.518182","1447114425023","20151110_091224","-0.475"
"2015/11/10 09:12:24","5","-0.431","9.681","103270","139.933175","patrol01","37.518181","1447114425124","20151110_091224","-0.475"
"2015/11/10 09:12:24","5","-0.431","9.679","103271","139.933175","patrol01","37.518181","1447114425225","20151110_091224","-0.477"
"2015/11/10 09:12:24","5","-0.43","9.68","103272","139.933176","patrol01","37.51818","1447114425325","20151110_091224","-0.481"
"2015/11/10 09:12:24","5","-0.431","9.681","103273","139.933176","patrol01","37.51818","1447114425426","20151110_091224","-0.484"
"2015/11/10 09:12:24","5","-0.433","9.68","103274","139.933176","patrol01","37.51818","1447114425527","20151110_091224","-0.478"
"2015/11/10 09:12:24","5","-0.436","9.677","103275","139.933176","patrol01","37.518179","1447114425628","20151110_091224","-0.476"
"2015/11/10 09:12:24","5","-0.43","9.677","103276","139.933176","patrol01","37.518179","1447114425723","20151110_091224","-0.478"
"2015/11/10 09:12:24","5","-0.429","9.681","103277","139.933176","patrol01","37.518179","1447114425829","20151110_091224","-0.479"
"2015/11/10 09:12:24","5","-0.438","9.679","103278","139.933176","patrol01","37.518179","1447114425925","20151110_091224","-0.478"
"2015/11/10 09:12:24","5","-0.435","9.685","103279","139.933176","patrol01","37.518179","1447114426024","20151110_091224","-0.475"
"2015/11/10 09:12:24","5","-0.424","9.68","103280","139.933176","patrol01","37.518178","1447114426126","20151110_091224","-0.469"
"2015/11/10 09:12:24","5","-0.434","9.681","103281","139.933176","patrol01","37.518178","1447114426225","20151110_091224","-0.472"
"2015/11/10 09:12:24","5","-0.438","9.678","103282","139.933176","patrol01","37.518178","1447114426327","20151110_091224","-0.482"
"2015/11/10 09:12:24","5","-0.432","9.681","103283","139.933176","patrol01","37.518178","1447114426423","20151110_091224","-0.478"
"2015/11/10 09:12:24","5","-0.428","9.684","103284","139.933175","patrol01","37.518178","1447114426524","20151110_091224","-0.472"
"2015/11/10 09:12:24","5","-0.434","9.681","103285","139.933175","patrol01","37.518177","1447114426625","20151110_091224","-0.474"
"2015/11/10 09:12:24","5","-0.436","9.687","103286","139.933175","patrol01","37.518177","1447114426725","20151110_091224","-0.477"
"2015/11/10 09:12:24","5","-0.432","9.683","103287","139.933175","patrol01","37.518177","1447114426826","20151110_091224","-0.475"
"2015/11/10 09:12:24","5","-0.432","9.68","103288","139.933174","patrol01","37.518177","1447114426927","20151110_091224","-0.472"
"2015/11/10 09:12:24","5","-0.434","9.68","103289","139.933174","patrol01","37.518177","1447114427027","20151110_091224","-0.469"
"2015/11/10 09:12:24","5","-0.433","9.679","103290","139.933174","patrol01","37.518176","1447114427123","20151110_091224","-0.474"
"2015/11/10 09:12:24","5","-0.427","9.681","103291","139.933173","patrol01","37.518176","1447114427224","20151110_091224","-0.483"
"2015/11/10 09:12:24","5","-0.43","9.681","103292","139.933173","patrol01","37.518176","1447114427324","20151110_091224","-0.477"
"2015/11/10 09:12:24","5","-0.434","9.68","103293","139.933172","patrol01","37.518176","1447114427425","20151110_091224","-0.47"
"2015/11/10 09:12:24","5","-0.43","9.68","103294","139.933172","patrol01","37.518176","1447114427526","20151110_091224","-0.475"
"2015/11/10 09:12:24","5","-0.43","9.686","103295","139.933171","patrol01","37.518175","1447114427627","20151110_091224","-0.476"
"2015/11/10 09:12:24","5","-0.438","9.679","103296","139.933171","patrol01","37.518175","1447114427727","20151110_091224","-0.476"
"2015/11/10 09:12:24","5","-0.435","9.683","103297","139.93317","patrol01","37.518175","1447114427823","20151110_091224","-0.473"
"2015/11/10 09:12:24","5","-0.428","9.684","103298","139.933169","patrol01","37.518175","1447114427924","20151110_091224","-0.471"
"2015/11/10 09:12:24","5","-0.435","9.683","103299","139.933169","patrol01","37.518175","1447114428024","20151110_091224","-0.476"
"2015/11/10 09:12:24","5","-0.439","9.685","103300","139.933168","patrol01","37.518174","1447114428125","20151110_091224","-0.484"
"2015/11/10 09:12:24","5","-0.433","9.681","103301","139.933168","patrol01","37.518174","1447114428226","20151110_091224","-0.482"
"2015/11/10 09:12:24","5","-0.429","9.686","103302","139.933167","patrol01","37.518174","1447114428326","20151110_091224","-0.477"
"2015/11/10 09:12:24","5","-0.428","9.683","103303","139.933167","patrol01","37.518174","1447114428427","20151110_091224","-0.472"
"2015/11/10 09:12:24","5","-0.43","9.683","103304","139.933167","patrol01","37.518174","1447114428523","20151110_091224","-0.476"
"2015/11/10 09:12:24","5","-0.431","9.681","103305","139.933167","patrol01","37.518174","1447114428624","20151110_091224","-0.477"
"2015/11/10 09:12:24","5","-0.433","9.683","103306","139.933167","patrol01","37.518174","1447114428724","20151110_091224","-0.474"
"2015/11/10 09:12:24","5","-0.435","9.682","103307","139.933167","patrol01","37.518174","1447114428825","20151110_091224","-0.469"
"2015/11/10 09:12:24","5","-0.433","9.68","103308","139.933167","patrol01","37.518174","1447114428926","20151110_091224","-0.471"
"2015/11/10 09:12:24","5","-0.433","9.682","103309","139.933167","patrol01","37.518174","1447114429026","20151110_091224","-0.474"
"2015/11/10 09:12:24","5","-0.435","9.68","103310","139.933167","patrol01","37.518174","1447114429127","20151110_091224","-0.473"
"2015/11/10 09:12:24","5","-0.434","9.681","103311","139.933167","patrol01","37.518174","1447114429223","20151110_091224","-0.471"
"2015/11/10 09:12:24","5","-0.433","9.684","103312","139.933167","patrol01","37.518174","1447114429324","20151110_091224","-0.474"
"2015/11/10 09:12:24","6","-0.434","9.682","103313","139.933167","patrol01","37.518174","1447114429424","20151110_091224","-0.479"
"2015/11/10 09:12:24","6","-0.44","9.68","103314","139.933167","patrol01","37.518174","1447114429525","20151110_091224","-0.475"
"2015/11/10 09:12:24","6","-0.438","9.681","103315","139.933167","patrol01","37.518174","1447114429626","20151110_091224","-0.471"
"2015/11/10 09:12:24","6","-0.435","9.683","103316","139.933167","patrol01","37.518174","1447114429726","20151110_091224","-0.473"
"2015/11/10 09:12:24","6","-0.433","9.681","103317","139.933167","patrol01","37.518174","1447114429827","20151110_091224","-0.477"
"2015/11/10 09:12:24","6","-0.439","9.68","103318","139.933167","patrol01","37.518173","1447114429923","20151110_091224","-0.476"
"2015/11/10 09:12:24","6","-0.436","9.681","103319","139.933167","patrol01","37.518173","1447114430023","20151110_091224","-0.473"
"2015/11/10 09:12:24","6","-0.433","9.68","103320","139.933167","patrol01","37.518173","1447114430124","20151110_091224","-0.476"
"2015/11/10 09:12:24","6","-0.435","9.681","103321","139.933167","patrol01","37.518173","1447114430225","20151110_091224","-0.477"
"2015/11/10 09:12:24","6","-0.438","9.681","103322","139.933167","patrol01","37.518173","1447114430326","20151110_091224","-0.478"
"2015/11/10 09:12:24","6","-0.432","9.678","103323","139.933167","patrol01","37.518173","1447114430426","20151110_091224","-0.471"
"2015/11/10 09:12:24","6","-0.429","9.679","103324","139.933167","patrol01","37.518173","1447114430527","20151110_091224","-0.471"
"2015/11/10 09:12:24","6","-0.439","9.678","103325","139.933166","patrol01","37.518173","1447114430623","20151110_091224","-0.474"
"2015/11/10 09:12:24","6","-0.436","9.678","103326","139.933166","patrol01","37.518173","1447114430723","20151110_091224","-0.474"
"2015/11/10 09:12:24","6","-0.433","9.679","103327","139.933166","patrol01","37.518173","1447114430824","20151110_091224","-0.469"
"2015/11/10 09:12:24","6","-0.435","9.674","103328","139.933166","patrol01","37.518174","1447114430925","20151110_091224","-0.468"
"2015/11/10 09:12:24","6","-0.438","9.68","103329","139.933166","patrol01","37.518174","1447114431025","20151110_091224","-0.471"
"2015/11/10 09:12:24","6","-0.431","9.678","103330","139.933165","patrol01","37.518174","1447114431126","20151110_091224","-0.479"
"2015/11/10 09:12:24","6","-0.43","9.688","103331","139.933165","patrol01","37.518174","1447114431227","20151110_091224","-0.479"
"2015/11/10 09:12:24","6","-0.435","9.677","103332","139.933165","patrol01","37.518174","1447114431323","20151110_091224","-0.465"
"2015/11/10 09:12:24","6","-0.434","9.678","103333","139.933165","patrol01","37.518174","1447114431423","20151110_091224","-0.466"
"2015/11/10 09:12:24","6","-0.429","9.684","103334","139.933165","patrol01","37.518174","1447114431524","20151110_091224","-0.474"
"2015/11/10 09:12:24","6","-0.432","9.681","103335","139.933165","patrol01","37.518174","1447114431625","20151110_091224","-0.482"
"2015/11/10 09:12:24","6","-0.433","9.681","103336","139.933165","patrol01","37.518174","1447114431725","20151110_091224","-0.478"
"2015/11/10 09:12:24","6","-0.429","9.678","103337","139.933165","patrol01","37.518174","1447114431826","20151110_091224","-0.471"
"2015/11/10 09:12:24","6","-0.434","9.677","103338","139.933165","patrol01","37.518174","1447114431927","20151110_091224","-0.474"
"2015/11/10 09:12:24","6","-0.436","9.682","103339","139.933165","patrol01","37.518174","1447114432028","20151110_091224","-0.483"
"2015/11/10 09:12:24","6","-0.433","9.678","103340","139.933165","patrol01","37.518174","1447114432123","20151110_091224","-0.484"
"2015/11/10 09:12:24","6","-0.435","9.677","103341","139.933165","patrol01","37.518174","1447114432224","20151110_091224","-0.476"
"2015/11/10 09:12:24","6","-0.438","9.675","103342","139.933165","patrol01","37.518174","1447114432325","20151110_091224","-0.473"
"2015/11/10 09:12:24","6","-0.437","9.674","103343","139.933165","patrol01","37.518174","1447114432425","20151110_091224","-0.481"
"2015/11/10 09:12:24","6","-0.436","9.68","103344","139.933165","patrol01","37.518174","1447114432526","20151110_091224","-0.479"
"2015/11/10 09:12:24","6","-0.432","9.673","103345","139.933165","patrol01","37.518174","1447114432627","20151110_091224","-0.468"
"2015/11/10 09:12:24","6","-0.434","9.678","103346","139.933165","patrol01","37.518174","1447114432727","20151110_091224","-0.465"
"2015/11/10 09:12:24","6","-0.439","9.678","103347","139.933165","patrol01","37.518174","1447114432823","20151110_091224","-0.473"
"2015/11/10 09:12:24","6","-0.429","9.678","103348","139.933165","patrol01","37.518173","1447114432924","20151110_091224","-0.485"
"2015/11/10 09:12:24","6","-0.435","9.68","103349","139.933165","patrol01","37.518173","1447114433025","20151110_091224","-0.47"
"2015/11/10 09:12:24","6","-0.431","9.676","103350","139.933165","patrol01","37.518173","1447114433125","20151110_091224","-0.461"
"2015/11/10 09:12:24","6","-0.431","9.682","103351","139.933165","patrol01","37.518173","1447114433226","20151110_091224","-0.476"
"2015/11/10 09:12:24","6","-0.427","9.682","103352","139.933165","patrol01","37.518173","1447114433327","20151110_091224","-0.486"
"2015/11/10 09:12:24","6","-0.432","9.677","103353","139.933165","patrol01","37.518173","1447114433427","20151110_091224","-0.476"
"2015/11/10 09:12:24","6","-0.432","9.676","103354","139.933165","patrol01","37.518173","1447114433523","20151110_091224","-0.463"
"2015/11/10 09:12:24","6","-0.43","9.679","103355","139.933165","patrol01","37.518173","1447114433624","20151110_091224","-0.471"
"2015/11/10 09:12:24","6","-0.432","9.68","103356","139.933165","patrol01","37.518173","1447114433724","20151110_091224","-0.485"
"2015/11/10 09:12:24","6","-0.426","9.683","103357","139.933165","patrol01","37.518173","1447114433825","20151110_091224","-0.483"
"2015/11/10 09:12:24","6","-0.422","9.679","103358","139.933165","patrol01","37.518173","1447114433926","20151110_091224","-0.463"
"2015/11/10 09:12:24","6","-0.43","9.675","103359","139.933165","patrol01","37.518173","1447114434027","20151110_091224","-0.456"
"2015/11/10 09:12:24","6","-0.44","9.681","103360","139.933165","patrol01","37.518173","1447114434127","20151110_091224","-0.486"
"2015/11/10 09:12:24","6","-0.432","9.679","103361","139.933165","patrol01","37.518173","1447114434223","20151110_091224","-0.487"
"2015/11/10 09:12:24","6","-0.424","9.681","103362","139.933165","patrol01","37.518173","1447114434324","20151110_091224","-0.472"
"2015/11/10 09:12:24","6","-0.431","9.677","103363","139.933165","patrol01","37.518173","1447114434424","20151110_091224","-0.468"
"2015/11/10 09:12:24","6","-0.436","9.68","103364","139.933165","patrol01","37.518173","1447114434525","20151110_091224","-0.48"
"2015/11/10 09:12:24","6","-0.431","9.677","103365","139.933165","patrol01","37.518173","1447114434626","20151110_091224","-0.483"
"2015/11/10 09:12:24","6","-0.428","9.68","103366","139.933165","patrol01","37.518173","1447114434727","20151110_091224","-0.47"
"2015/11/10 09:12:24","6","-0.416","9.667","103367","139.933165","patrol01","37.518173","1447114434827","20151110_091224","-0.453"
"2015/11/10 09:12:24","6","-0.429","9.674","103368","139.933165","patrol01","37.518173","1447114434923","20151110_091224","-0.469"
"2015/11/10 09:12:24","6","-0.447","9.677","103369","139.933165","patrol01","37.518173","1447114435024","20151110_091224","-0.493"
"2015/11/10 09:12:24","6","-0.444","9.668","103370","139.933165","patrol01","37.518173","1447114435124","20151110_091224","-0.471"
"2015/11/10 09:12:24","6","-0.417","9.685","103371","139.933165","patrol01","37.518173","1447114435225","20151110_091224","-0.459"
"2015/11/10 09:12:24","6","-0.429","9.667","103372","139.933165","patrol01","37.518173","1447114435326","20151110_091224","-0.476"
"2015/11/10 09:12:24","6","-0.448","9.679","103373","139.933165","patrol01","37.518173","1447114435426","20151110_091224","-0.482"
"2015/11/10 09:12:24","6","-0.423","9.674","103374","139.933165","patrol01","37.518173","1447114435527","20151110_091224","-0.473"
"2015/11/10 09:12:24","6","-0.424","9.671","103375","139.933165","patrol01","37.518173","1447114435623","20151110_091224","-0.468"
"2015/11/10 09:12:24","6","-0.438","9.674","103376","139.933165","patrol01","37.518173","1447114435724","20151110_091224","-0.472"
"2015/11/10 09:12:24","6","-0.43","9.684","103377","139.933165","patrol01","37.518173","1447114435824","20151110_091224","-0.479"
"2015/11/10 09:12:24","6","-0.424","9.682","103378","139.933165","patrol01","37.518173","1447114435925","20151110_091224","-0.477"
"2015/11/10 09:12:24","6","-0.431","9.684","103379","139.933165","patrol01","37.518173","1447114436026","20151110_091224","-0.474"
"2015/11/10 09:12:24","6","-0.433","9.676","103380","139.933165","patrol01","37.518173","1447114436126","20151110_091224","-0.472"
"2015/11/10 09:12:24","6","-0.436","9.686","103381","139.933165","patrol01","37.518173","1447114436227","20151110_091224","-0.476"
"2015/11/10 09:12:24","6","-0.419","9.689","103382","139.933165","patrol01","37.518173","1447114436323","20151110_091224","-0.476"
"2015/11/10 09:12:24","6","-0.44","9.675","103383","139.933165","patrol01","37.518173","1447114436423","20151110_091224","-0.479"
"2015/11/10 09:12:24","6","-0.444","9.679","103384","139.933165","patrol01","37.518173","1447114436524","20151110_091224","-0.474"
"2015/11/10 09:12:24","6","-0.434","9.681","103385","139.933165","patrol01","37.518173","1447114436625","20151110_091224","-0.466"
"2015/11/10 09:12:24","6","-0.411","9.686","103386","139.933165","patrol01","37.518173","1447114436726","20151110_091224","-0.48"
"2015/11/10 09:12:24","6","-0.443","9.673","103387","139.933165","patrol01","37.518173","1447114436826","20151110_091224","-0.48"
"2015/11/10 09:12:24","6","-0.444","9.683","103388","139.933165","patrol01","37.518173","1447114436927","20151110_091224","-0.469"
"2015/11/10 09:12:24","6","-0.416","9.674","103389","139.933165","patrol01","37.518173","1447114437023","20151110_091224","-0.475"
"2015/11/10 09:12:24","6","-0.414","9.679","103390","139.933165","patrol01","37.518173","1447114437123","20151110_091224","-0.48"
"2015/11/10 09:12:24","6","-0.435","9.68","103391","139.933165","patrol01","37.518173","1447114437224","20151110_091224","-0.468"
"2015/11/10 09:12:24","6","-0.45","9.677","103392","139.933165","patrol01","37.518173","1447114437325","20151110_091224","-0.476"
"2015/11/10 09:12:24","6","-0.425","9.678","103393","139.933165","patrol01","37.518173","1447114437426","20151110_091224","-0.482"
"2015/11/10 09:12:24","6","-0.42","9.681","103394","139.933165","patrol01","37.518173","1447114437526","20151110_091224","-0.477"
"2015/11/10 09:12:24","6","-0.441","9.675","103395","139.933165","patrol01","37.518173","1447114437627","20151110_091224","-0.468"
"2015/11/10 09:12:24","6","-0.442","9.676","103396","139.933165","patrol01","37.518173","1447114437723","20151110_091224","-0.471"
"2015/11/10 09:12:24","6","-0.428","9.68","103397","139.933165","patrol01","37.518173","1447114437823","20151110_091224","-0.477"
"2015/11/10 09:12:24","6","-0.43","9.678","103398","139.933165","patrol01","37.518173","1447114437924","20151110_091224","-0.473"
"2015/11/10 09:12:24","6","-0.441","9.678","103399","139.933165","patrol01","37.518173","1447114438025","20151110_091224","-0.469"
"2015/11/10 09:12:24","6","-0.434","9.677","103400","139.933165","patrol01","37.518173","1447114438125","20151110_091224","-0.471"
"2015/11/10 09:12:24","6","-0.431","9.676","103401","139.933165","patrol01","37.518173","1447114438226","20151110_091224","-0.473"
"2015/11/10 09:12:24","6","-0.435","9.676","103402","139.933165","patrol01","37.518173","1447114438327","20151110_091224","-0.474"
"2015/11/10 09:12:24","6","-0.438","9.67","103403","139.933165","patrol01","37.518173","1447114438423","20151110_091224","-0.473"
"2015/11/10 09:12:24","6","-0.439","9.677","103404","139.933165","patrol01","37.518173","1447114438523","20151110_091224","-0.472"
"2015/11/10 09:12:24","6","-0.435","9.678","103405","139.933165","patrol01","37.518173","1447114438624","20151110_091224","-0.473"
"2015/11/10 09:12:24","6","-0.433","9.677","103406","139.933165","patrol01","37.518173","1447114438725","20151110_091224","-0.476"
"2015/11/10 09:12:24","6","-0.436","9.677","103407","139.933165","patrol01","37.518173","1447114438825","20151110_091224","-0.476"
"2015/11/10 09:12:24","6","-0.431","9.672","103408","139.933165","patrol01","37.518173","1447114438926","20151110_091224","-0.472"
"2015/11/10 09:12:24","6","-0.432","9.678","103409","139.933165","patrol01","37.518173","1447114439027","20151110_091224","-0.471"
"2015/11/10 09:12:24","6","-0.44","9.676","103410","139.933165","patrol01","37.518173","1447114439127","20151110_091224","-0.471"
"2015/11/10 09:12:24","6","-0.44","9.678","103411","139.933165","patrol01","37.518173","1447114439223","20151110_091224","-0.475"
"2015/11/10 09:12:24","6","-0.435","9.675","103412","139.933165","patrol01","37.518173","1447114439324","20151110_091224","-0.473"
"2015/11/10 09:12:24","6","-0.434","9.676","103413","139.933165","patrol01","37.518173","1447114439425","20151110_091224","-0.472"
"2015/11/10 09:12:24","6","-0.438","9.678","103414","139.933165","patrol01","37.518173","1447114439525","20151110_091224","-0.474"
"2015/11/10 09:12:24","6","-0.434","9.682","103415","139.933165","patrol01","37.518173","1447114439626","20151110_091224","-0.476"
"2015/11/10 09:12:24","6","-0.435","9.678","103416","139.933165","patrol01","37.518173","1447114439727","20151110_091224","-0.474"
"2015/11/10 09:12:24","6","-0.434","9.678","103417","139.933165","patrol01","37.518173","1447114439827","20151110_091224","-0.476"
"2015/11/10 09:12:24","6","-0.435","9.679","103418","139.933165","patrol01","37.518173","1447114439928","20151110_091224","-0.471"
"2015/11/10 09:12:24","6","-0.43","9.68","103419","139.933165","patrol01","37.518173","1447114440024","20151110_091224","-0.471"
"2015/11/10 09:12:24","6","-0.436","9.679","103420","139.933165","patrol01","37.518173","1447114440123","20151110_091224","-0.475"
"2015/11/10 09:12:24","6","-0.425","9.677","103421","139.933165","patrol01","37.518173","1447114440225","20151110_091224","-0.474"
"2015/11/10 09:12:24","6","-0.43","9.676","103422","139.933165","patrol01","37.518173","1447114440324","20151110_091224","-0.473"
"2015/11/10 09:12:24","6","-0.435","9.672","103423","139.933165","patrol01","37.518173","1447114440427","20151110_091224","-0.476"
"2015/11/10 09:12:24","6","-0.436","9.678","103424","139.933165","patrol01","37.518173","1447114440526","20151110_091224","-0.478"
"2015/11/10 09:12:24","6","-0.437","9.679","103425","139.933165","patrol01","37.518173","1447114440623","20151110_091224","-0.476"
"2015/11/10 09:12:24","6","-0.437","9.681","103426","139.933165","patrol01","37.518173","1447114440724","20151110_091224","-0.476"
"2015/11/10 09:12:24","6","-0.432","9.679","103427","139.933165","patrol01","37.518173","1447114440824","20151110_091224","-0.472"
"2015/11/10 09:12:24","6","-0.429","9.678","103428","139.933165","patrol01","37.518173","1447114440925","20151110_091224","-0.473"
"2015/11/10 09:12:24","6","-0.445","9.675","103429","139.933165","patrol01","37.518173","1447114441026","20151110_091224","-0.475"
"2015/11/10 09:12:24","6","-0.441","9.675","103430","139.933165","patrol01","37.518173","1447114441126","20151110_091224","-0.479"
"2015/11/10 09:12:24","6","-0.427","9.679","103431","139.933165","patrol01","37.518173","1447114441227","20151110_091224","-0.48"
"2015/11/10 09:12:24","6","-0.435","9.678","103432","139.933165","patrol01","37.518173","1447114441323","20151110_091224","-0.477"
"2015/11/10 09:12:24","6","-0.441","9.679","103433","139.933165","patrol01","37.518173","1447114441424","20151110_091224","-0.473"
"2015/11/10 09:12:24","6","-0.438","9.678","103434","139.933165","patrol01","37.518173","1447114441524","20151110_091224","-0.474"
"2015/11/10 09:12:24","6","-0.434","9.679","103435","139.933166","patrol01","37.518173","1447114441625","20151110_091224","-0.473"
"2015/11/10 09:12:24","6","-0.439","9.678","103436","139.933166","patrol01","37.518173","1447114441726","20151110_091224","-0.472"
"2015/11/10 09:12:24","6","-0.436","9.674","103437","139.933166","patrol01","37.518173","1447114441826","20151110_091224","-0.471"
"2015/11/10 09:12:24","6","-0.432","9.678","103438","139.933166","patrol01","37.518174","1447114441927","20151110_091224","-0.476"
"2015/11/10 09:12:24","6","-0.438","9.677","103439","139.933166","patrol01","37.518174","1447114442023","20151110_091224","-0.48"
"2015/11/10 09:12:24","6","-0.432","9.67","103440","139.933167","patrol01","37.518174","1447114442124","20151110_091224","-0.471"
"2015/11/10 09:12:24","6","-0.43","9.675","103441","139.933167","patrol01","37.518174","1447114442224","20151110_091224","-0.465"
"2015/11/10 09:12:24","6","-0.437","9.677","103442","139.933167","patrol01","37.518174","1447114442325","20151110_091224","-0.474"
"2015/11/10 09:12:24","6","-0.435","9.68","103443","139.933167","patrol01","37.518174","1447114442426","20151110_091224","-0.481"
"2015/11/10 09:12:24","6","-0.429","9.68","103444","139.933167","patrol01","37.518174","1447114442526","20151110_091224","-0.474"
"2015/11/10 09:12:24","6","-0.432","9.675","103445","139.933167","patrol01","37.518174","1447114442627","20151110_091224","-0.469"
"2015/11/10 09:12:24","6","-0.437","9.678","103446","139.933167","patrol01","37.518174","1447114442723","20151110_091224","-0.47"
"2015/11/10 09:12:24","6","-0.434","9.677","103447","139.933167","patrol01","37.518174","1447114442823","20151110_091224","-0.48"
"2015/11/10 09:12:24","6","-0.433","9.679","103448","139.933167","patrol01","37.518175","1447114442924","20151110_091224","-0.479"
"2015/11/10 09:12:24","6","-0.437","9.679","103449","139.933167","patrol01","37.518175","1447114443025","20151110_091224","-0.468"
"2015/11/10 09:12:24","6","-0.436","9.677","103450","139.933167","patrol01","37.518175","1447114443126","20151110_091224","-0.465"
"2015/11/10 09:12:24","6","-0.431","9.681","103451","139.933167","patrol01","37.518175","1447114443226","20151110_091224","-0.476"
"2015/11/10 09:12:24","6","-0.442","9.679","103452","139.933167","patrol01","37.518175","1447114443323","20151110_091224","-0.493"
"2015/11/10 09:12:24","6","-0.448","9.683","103453","139.933167","patrol01","37.518175","1447114443423","20151110_091224","-0.482"
"2015/11/10 09:12:24","6","-0.425","9.67","103454","139.933167","patrol01","37.518175","1447114443523","20151110_091224","-0.464"
"2015/11/10 09:12:24","6","-0.421","9.681","103455","139.933167","patrol01","37.518175","1447114443624","20151110_091224","-0.47"
"2015/11/10 09:12:24","6","-0.444","9.681","103456","139.933167","patrol01","37.518175","1447114443725","20151110_091224","-0.481"
"2015/11/10 09:12:24","6","-0.433","9.677","103457","139.933167","patrol01","37.518175","1447114443825","20151110_091224","-0.48"
"2015/11/10 09:12:24","6","-0.423","9.683","103458","139.933168","patrol01","37.518175","1447114443926","20151110_091224","-0.469"
"2015/11/10 09:12:24","6","-0.436","9.676","103459","139.933168","patrol01","37.518175","1447114444027","20151110_091224","-0.47"
"2015/11/10 09:12:24","6","-0.443","9.68","103460","139.933168","patrol01","37.518175","1447114444123","20151110_091224","-0.477"
"2015/11/10 09:12:24","6","-0.433","9.68","103461","139.933168","patrol01","37.518175","1447114444223","20151110_091224","-0.476"
"2015/11/10 09:12:24","6","-0.425","9.679","103462","139.933168","patrol01","37.518175","1447114444324","20151110_091224","-0.473"
"2015/11/10 09:12:24","6","-0.435","9.681","103463","139.933168","patrol01","37.518175","1447114444425","20151110_091224","-0.47"
"2015/11/10 09:12:24","6","-0.437","9.679","103464","139.933168","patrol01","37.518175","1447114444525","20151110_091224","-0.471"
"2015/11/10 09:12:24","6","-0.429","9.679","103465","139.933168","patrol01","37.518175","1447114444626","20151110_091224","-0.477"
"2015/11/10 09:12:24","6","-0.434","9.682","103466","139.933168","patrol01","37.518175","1447114444727","20151110_091224","-0.477"
"2015/11/10 09:12:24","6","-0.44","9.678","103467","139.933168","patrol01","37.518175","1447114444828","20151110_091224","-0.474"
"2015/11/10 09:12:24","6","-0.436","9.679","103468","139.933168","patrol01","37.518175","1447114444923","20151110_091224","-0.472"
"2015/11/10 09:12:24","6","-0.43","9.682","103469","139.933168","patrol01","37.518175","1447114445024","20151110_091224","-0.471"
"2015/11/10 09:12:24","6","-0.437","9.679","103470","139.933168","patrol01","37.518175","1447114445125","20151110_091224","-0.475"
"2015/11/10 09:12:24","6","-0.437","9.681","103471","139.933168","patrol01","37.518175","1447114445225","20151110_091224","-0.479"
"2015/11/10 09:12:24","6","-0.428","9.681","103472","139.933168","patrol01","37.518175","1447114445326","20151110_091224","-0.473"
"2015/11/10 09:12:24","5","-0.432","9.677","103473","139.933168","patrol01","37.518175","1447114445427","20151110_091224","-0.468"
"2015/11/10 09:12:24","5","-0.433","9.679","103474","139.933168","patrol01","37.518175","1447114445527","20151110_091224","-0.47"
"2015/11/10 09:12:24","5","-0.429","9.678","103475","139.933168","patrol01","37.518175","1447114445623","20151110_091224","-0.475"
"2015/11/10 09:12:24","5","-0.432","9.679","103476","139.933168","patrol01","37.518175","1447114445724","20151110_091224","-0.476"
"2015/11/10 09:12:24","5","-0.438","9.675","103477","139.933168","patrol01","37.518175","1447114445825","20151110_091224","-0.475"
"2015/11/10 09:12:24","5","-0.43","9.674","103478","139.933168","patrol01","37.518175","1447114445925","20151110_091224","-0.474"
"2015/11/10 09:12:24","5","-0.429","9.674","103479","139.933168","patrol01","37.518175","1447114446026","20151110_091224","-0.475"
"2015/11/10 09:12:24","5","-0.43","9.677","103480","139.933168","patrol01","37.518175","1447114446127","20151110_091224","-0.473"
"2015/11/10 09:12:24","5","-0.431","9.682","103481","139.933168","patrol01","37.518175","1447114446227","20151110_091224","-0.471"
"2015/11/10 09:12:24","5","-0.43","9.681","103482","139.933168","patrol01","37.518175","1447114446323","20151110_091224","-0.472"
"2015/11/10 09:12:24","6","-0.43","9.681","103483","139.933168","patrol01","37.518175","1447114446424","20151110_091224","-0.475"
"2015/11/10 09:12:24","6","-0.434","9.679","103484","139.933168","patrol01","37.518175","1447114446524","20151110_091224","-0.476"
"2015/11/10 09:12:24","6","-0.434","9.681","103485","139.933168","patrol01","37.518175","1447114446625","20151110_091224","-0.473"
"2015/11/10 09:12:24","6","-0.432","9.682","103486","139.933168","patrol01","37.518175","1447114446726","20151110_091224","-0.473"
"2015/11/10 09:12:24","6","-0.433","9.678","103487","139.933168","patrol01","37.518175","1447114446827","20151110_091224","-0.474"
"2015/11/10 09:12:24","6","-0.435","9.679","103488","139.933168","patrol01","37.518175","1447114446927","20151110_091224","-0.472"
"2015/11/10 09:12:24","6","-0.434","9.681","103489","139.933168","patrol01","37.518175","1447114447023","20151110_091224","-0.472"
"2015/11/10 09:12:24","6","-0.436","9.681","103490","139.933168","patrol01","37.518175","1447114447124","20151110_091224","-0.473"
"2015/11/10 09:12:24","6","-0.435","9.681","103491","139.933168","patrol01","37.518175","1447114447224","20151110_091224","-0.475"
"2015/11/10 09:12:24","6","-0.434","9.679","103492","139.933168","patrol01","37.518175","1447114447325","20151110_091224","-0.474"
"2015/11/10 09:12:24","6","-0.434","9.68","103493","139.933168","patrol01","37.518175","1447114447426","20151110_091224","-0.473"
"2015/11/10 09:12:24","6","-0.431","9.679","103494","139.933168","patrol01","37.518175","1447114447526","20151110_091224","-0.474"
"2015/11/10 09:12:24","6","-0.436","9.68","103495","139.933168","patrol01","37.518175","1447114447627","20151110_091224","-0.471"
"2015/11/10 09:12:24","6","-0.438","9.677","103496","139.933168","patrol01","37.518175","1447114447723","20151110_091224","-0.476"
"2015/11/10 09:12:24","6","-0.437","9.676","103497","139.933168","patrol01","37.518175","1447114447824","20151110_091224","-0.476"
"2015/11/10 09:12:24","6","-0.435","9.679","103498","139.933168","patrol01","37.518175","1447114447924","20151110_091224","-0.473"
"2015/11/10 09:12:24","6","-0.437","9.679","103499","139.933168","patrol01","37.518175","1447114448025","20151110_091224","-0.472"
"2015/11/10 09:12:24","6","-0.433","9.679","103500","139.933168","patrol01","37.518175","1447114448126","20151110_091224","-0.475"
"2015/11/10 09:12:24","6","-0.433","9.681","103501","139.933168","patrol01","37.518175","1447114448226","20151110_091224","-0.477"
"2015/11/10 09:12:24","6","-0.427","9.681","103502","139.933168","patrol01","37.518175","1447114448327","20151110_091224","-0.473"
"2015/11/10 09:12:24","6","-0.427","9.679","103503","139.933168","patrol01","37.518175","1447114448423","20151110_091224","-0.474"
"2015/11/10 09:12:24","6","-0.428","9.683","103504","139.933168","patrol01","37.518175","1447114448524","20151110_091224","-0.474"
"2015/11/10 09:12:24","6","-0.431","9.678","103505","139.933168","patrol01","37.518175","1447114448624","20151110_091224","-0.472"
"2015/11/10 09:12:24","6","-0.436","9.679","103506","139.933168","patrol01","37.518175","1447114448725","20151110_091224","-0.471"
"2015/11/10 09:12:24","6","-0.433","9.68","103507","139.933168","patrol01","37.518175","1447114448826","20151110_091224","-0.473"
"2015/11/10 09:12:24","6","-0.426","9.68","103508","139.933168","patrol01","37.518175","1447114448926","20151110_091224","-0.473"
"2015/11/10 09:12:24","6","-0.436","9.682","103509","139.933168","patrol01","37.518175","1447114449027","20151110_091224","-0.473"
"2015/11/10 09:12:24","6","-0.433","9.683","103510","139.933168","patrol01","37.518175","1447114449123","20151110_091224","-0.473"
"2015/11/10 09:12:24","6","-0.426","9.68","103511","139.933168","patrol01","37.518175","1447114449223","20151110_091224","-0.472"
"2015/11/10 09:12:24","6","-0.428","9.681","103512","139.933168","patrol01","37.518175","1447114449324","20151110_091224","-0.469"
"2015/11/10 09:12:24","6","-0.441","9.679","103513","139.933168","patrol01","37.518175","1447114449425","20151110_091224","-0.47"
"2015/11/10 09:12:24","6","-0.434","9.682","103514","139.933168","patrol01","37.518175","1447114449526","20151110_091224","-0.475"
"2015/11/10 09:12:24","6","-0.424","9.681","103515","139.933168","patrol01","37.518175","1447114449626","20151110_091224","-0.481"
"2015/11/10 09:12:24","6","-0.43","9.68","103516","139.933168","patrol01","37.518175","1447114449727","20151110_091224","-0.476"
"2015/11/10 09:12:24","6","-0.438","9.674","103517","139.933168","patrol01","37.518175","1447114449823","20151110_091224","-0.466"
"2015/11/10 09:12:24","6","-0.432","9.68","103518","139.933168","patrol01","37.518175","1447114449924","20151110_091224","-0.471"
"2015/11/10 09:12:24","6","-0.427","9.683","103519","139.933168","patrol01","37.518175","1447114450024","20151110_091224","-0.483"
"2015/11/10 09:12:24","6","-0.434","9.679","103520","139.933168","patrol01","37.518175","1447114450125","20151110_091224","-0.479"
"2015/11/10 09:12:24","6","-0.437","9.679","103521","139.933168","patrol01","37.518175","1447114450225","20151110_091224","-0.467"
"2015/11/10 09:12:24","6","-0.429","9.677","103522","139.933168","patrol01","37.518175","1447114450326","20151110_091224","-0.469"
"2015/11/10 09:12:24","6","-0.425","9.681","103523","139.933168","patrol01","37.518175","1447114450427","20151110_091224","-0.477"
"2015/11/10 09:12:24","6","-0.434","9.68","103524","139.933168","patrol01","37.518175","1447114450523","20151110_091224","-0.475"
"2015/11/10 09:12:24","6","-0.432","9.683","103525","139.933168","patrol01","37.518175","1447114450623","20151110_091224","-0.473"
"2015/11/10 09:12:24","6","-0.425","9.679","103526","139.933168","patrol01","37.518175","1447114450724","20151110_091224","-0.47"
"2015/11/10 09:12:24","6","-0.427","9.68","103527","139.933168","patrol01","37.518175","1447114450825","20151110_091224","-0.473"
"2015/11/10 09:12:24","6","-0.434","9.675","103528","139.933168","patrol01","37.518175","1447114450925","20151110_091224","-0.477"
"2015/11/10 09:12:24","6","-0.436","9.675","103529","139.933168","patrol01","37.518175","1447114451026","20151110_091224","-0.469"
"2015/11/10 09:12:24","6","-0.429","9.679","103530","139.933168","patrol01","37.518175","1447114451127","20151110_091224","-0.468"
"2015/11/10 09:12:24","6","-0.434","9.676","103531","139.933168","patrol01","37.518175","1447114451223","20151110_091224","-0.47"
"2015/11/10 09:12:24","6","-0.438","9.682","103532","139.933168","patrol01","37.518175","1447114451323","20151110_091224","-0.474"
"2015/11/10 09:12:24","6","-0.432","9.68","103533","139.933168","patrol01","37.518175","1447114451424","20151110_091224","-0.474"
"2015/11/10 09:12:24","6","-0.429","9.677","103534","139.933168","patrol01","37.518175","1447114451525","20151110_091224","-0.472"
"2015/11/10 09:12:24","6","-0.436","9.68","103535","139.933168","patrol01","37.518175","1447114451625","20151110_091224","-0.474"
"2015/11/10 09:12:24","6","-0.437","9.674","103536","139.933168","patrol01","37.518175","1447114451726","20151110_091224","-0.478"
"2015/11/10 09:12:24","6","-0.437","9.677","103537","139.933168","patrol01","37.518175","1447114451827","20151110_091224","-0.476"
"2015/11/10 09:12:24","6","-0.433","9.679","103538","139.933168","patrol01","37.518175","1447114451927","20151110_091224","-0.473"
"2015/11/10 09:12:24","6","-0.425","9.678","103539","139.933168","patrol01","37.518175","1447114452023","20151110_091224","-0.474"
"2015/11/10 09:12:24","6","-0.441","9.673","103540","139.933168","patrol01","37.518175","1447114452124","20151110_091224","-0.478"
"2015/11/10 09:12:24","6","-0.438","9.679","103541","139.933168","patrol01","37.518175","1447114452224","20151110_091224","-0.475"
"2015/11/10 09:12:24","6","-0.433","9.674","103542","139.933168","patrol01","37.518175","1447114452325","20151110_091224","-0.472"
"2015/11/10 09:12:24","6","-0.435","9.676","103543","139.933168","patrol01","37.518175","1447114452426","20151110_091224","-0.474"
"2015/11/10 09:12:24","6","-0.434","9.678","103544","139.933168","patrol01","37.518175","1447114452527","20151110_091224","-0.476"
"2015/11/10 09:12:24","6","-0.433","9.678","103545","139.933168","patrol01","37.518175","1447114452627","20151110_091224","-0.476"
"2015/11/10 09:12:24","6","-0.429","9.678","103546","139.933168","patrol01","37.518175","1447114452723","20151110_091224","-0.473"
"2015/11/10 09:12:24","6","-0.432","9.677","103547","139.933168","patrol01","37.518175","1447114452824","20151110_091224","-0.473"
"2015/11/10 09:12:24","6","-0.432","9.678","103548","139.933168","patrol01","37.518175","1447114452924","20151110_091224","-0.472"
"2015/11/10 09:12:24","6","-0.427","9.677","103549","139.933168","patrol01","37.518175","1447114453025","20151110_091224","-0.471"
"2015/11/10 09:12:24","6","-0.43","9.677","103550","139.933168","patrol01","37.518175","1447114453126","20151110_091224","-0.473"
"2015/11/10 09:12:24","6","-0.434","9.675","103551","139.933168","patrol01","37.518175","1447114453227","20151110_091224","-0.473"
"2015/11/10 09:12:24","6","-0.433","9.677","103552","139.933168","patrol01","37.518175","1447114453327","20151110_091224","-0.475"
"2015/11/10 09:12:24","6","-0.436","9.678","103553","139.933168","patrol01","37.518175","1447114453423","20151110_091224","-0.473"
"2015/11/10 09:12:24","6","-0.438","9.676","103554","139.933168","patrol01","37.518175","1447114453524","20151110_091224","-0.471"
"2015/11/10 09:12:24","6","-0.432","9.678","103555","139.933168","patrol01","37.518175","1447114453624","20151110_091224","-0.474"
"2015/11/10 09:12:24","6","-0.435","9.679","103556","139.933168","patrol01","37.518175","1447114453725","20151110_091224","-0.475"
"2015/11/10 09:12:24","6","-0.432","9.679","103557","139.933168","patrol01","37.518175","1447114453826","20151110_091224","-0.47"
"2015/11/10 09:12:24","6","-0.432","9.679","103558","139.933168","patrol01","37.518175","1447114453927","20151110_091224","-0.472"
"2015/11/10 09:12:24","6","-0.432","9.679","103559","139.933168","patrol01","37.518175","1447114454027","20151110_091224","-0.475"
"2015/11/10 09:12:24","6","-0.435","9.677","103560","139.933168","patrol01","37.518175","1447114454123","20151110_091224","-0.474"
"2015/11/10 09:12:24","6","-0.435","9.682","103561","139.933168","patrol01","37.518175","1447114454229","20151110_091224","-0.471"
"2015/11/10 09:12:24","6","-0.429","9.679","103562","139.933168","patrol01","37.518175","1447114454324","20151110_091224","-0.468"
"2015/11/10 09:12:24","6","-0.428","9.678","103563","139.933168","patrol01","37.518175","1447114454423","20151110_091224","-0.473"
"2015/11/10 09:12:24","6","-0.43","9.677","103564","139.933168","patrol01","37.518175","1447114454526","20151110_091224","-0.477"
"2015/11/10 09:12:24","6","-0.432","9.673","103565","139.933168","patrol01","37.518175","1447114454625","20151110_091224","-0.476"
"2015/11/10 09:12:24","6","-0.432","9.677","103566","139.933168","patrol01","37.518175","1447114454727","20151110_091224","-0.473"
"2015/11/10 09:12:24","6","-0.436","9.673","103567","139.933168","patrol01","37.518175","1447114454823","20151110_091224","-0.471"
"2015/11/10 09:12:24","6","-0.437","9.678","103568","139.933168","patrol01","37.518175","1447114454923","20151110_091224","-0.471"
"2015/11/10 09:12:24","6","-0.417","9.678","103569","139.933168","patrol01","37.518175","1447114455024","20151110_091224","-0.475"
"2015/11/10 09:12:24","6","-0.434","9.679","103570","139.933168","patrol01","37.518175","1447114455125","20151110_091224","-0.478"
"2015/11/10 09:12:24","6","-0.443","9.679","103571","139.933168","patrol01","37.518175","1447114455226","20151110_091224","-0.473"
"2015/11/10 09:12:24","6","-0.429","9.679","103572","139.933168","patrol01","37.518175","1447114455326","20151110_091224","-0.467"
"2015/11/10 09:12:24","6","-0.426","9.676","103573","139.933168","patrol01","37.518175","1447114455427","20151110_091224","-0.472"
"2015/11/10 09:12:24","6","-0.444","9.675","103574","139.933168","patrol01","37.518175","1447114455523","20151110_091224","-0.473"
"2015/11/10 09:12:24","6","-0.442","9.676","103575","139.933168","patrol01","37.518175","1447114455623","20151110_091224","-0.469"
"2015/11/10 09:12:24","6","-0.428","9.677","103576","139.933168","patrol01","37.518175","1447114455724","20151110_091224","-0.473"
"2015/11/10 09:12:24","6","-0.434","9.678","103577","139.933168","patrol01","37.518175","1447114455825","20151110_091224","-0.475"
"2015/11/10 09:12:24","6","-0.444","9.676","103578","139.933168","patrol01","37.518175","1447114455926","20151110_091224","-0.47"
"2015/11/10 09:12:24","6","-0.436","9.678","103579","139.933168","patrol01","37.518175","1447114456026","20151110_091224","-0.472"
"2015/11/10 09:12:24","6","-0.427","9.677","103580","139.933168","patrol01","37.518175","1447114456127","20151110_091224","-0.473"
"2015/11/10 09:12:24","6","-0.429","9.673","103581","139.933168","patrol01","37.518175","1447114456223","20151110_091224","-0.476"
"2015/11/10 09:12:24","6","-0.434","9.671","103582","139.933168","patrol01","37.518175","1447114456323","20151110_091224","-0.473"
"2015/11/10 09:12:24","6","-0.427","9.671","103583","139.933168","patrol01","37.518175","1447114456424","20151110_091224","-0.468"
"2015/11/10 09:12:24","6","-0.427","9.673","103584","139.933168","patrol01","37.518175","1447114456525","20151110_091224","-0.469"
"2015/11/10 09:12:24","6","-0.433","9.671","103585","139.933168","patrol01","37.518175","1447114456625","20151110_091224","-0.476"
"2015/11/10 09:12:24","6","-0.437","9.671","103586","139.933168","patrol01","37.518175","1447114456726","20151110_091224","-0.478"
"2015/11/10 09:12:24","6","-0.428","9.674","103587","139.933168","patrol01","37.518175","1447114456827","20151110_091224","-0.474"
"2015/11/10 09:12:24","6","-0.42","9.675","103588","139.933168","patrol01","37.518175","1447114456923","20151110_091224","-0.47"
"2015/11/10 09:12:24","6","-0.429","9.679","103589","139.933168","patrol01","37.518175","1447114457023","20151110_091224","-0.471"
"2015/11/10 09:12:24","6","-0.434","9.678","103590","139.933168","patrol01","37.518175","1447114457124","20151110_091224","-0.476"
"2015/11/10 09:12:24","6","-0.431","9.676","103591","139.933168","patrol01","37.518175","1447114457225","20151110_091224","-0.472"
"2015/11/10 09:12:24","6","-0.435","9.672","103592","139.933168","patrol01","37.518175","1447114457325","20151110_091224","-0.468"
"2015/11/10 09:12:24","6","-0.434","9.673","103593","139.933168","patrol01","37.518175","1447114457426","20151110_091224","-0.471"
"2015/11/10 09:12:24","6","-0.433","9.676","103594","139.933168","patrol01","37.518175","1447114457527","20151110_091224","-0.475"
"2015/11/10 09:12:24","6","-0.436","9.675","103595","139.933168","patrol01","37.518175","1447114457623","20151110_091224","-0.471"
"2015/11/10 09:12:24","6","-0.437","9.672","103596","139.933168","patrol01","37.518175","1447114457723","20151110_091224","-0.47"
"2015/11/10 09:12:24","6","-0.435","9.672","103597","139.933168","patrol01","37.518175","1447114457824","20151110_091224","-0.473"
"2015/11/10 09:12:24","6","-0.433","9.673","103598","139.933168","patrol01","37.518175","1447114457925","20151110_091224","-0.472"
"2015/11/10 09:12:24","6","-0.434","9.673","103599","139.933168","patrol01","37.518175","1447114458025","20151110_091224","-0.472"
"2015/11/10 09:12:24","6","-0.43","9.676","103600","139.933168","patrol01","37.518175","1447114458126","20151110_091224","-0.473"
"2015/11/10 09:12:24","6","-0.426","9.675","103601","139.933168","patrol01","37.518175","1447114458227","20151110_091224","-0.471"
"2015/11/10 09:12:24","6","-0.426","9.678","103602","139.933168","patrol01","37.518175","1447114458327","20151110_091224","-0.472"
"2015/11/10 09:12:24","6","-0.429","9.675","103603","139.933168","patrol01","37.518175","1447114458423","20151110_091224","-0.47"
"2015/11/10 09:12:24","6","-0.433","9.678","103604","139.933168","patrol01","37.518175","1447114458524","20151110_091224","-0.468"
"2015/11/10 09:12:24","6","-0.431","9.677","103605","139.933168","patrol01","37.518175","1447114458624","20151110_091224","-0.47"
"2015/11/10 09:12:24","6","-0.432","9.675","103606","139.933168","patrol01","37.518175","1447114458725","20151110_091224","-0.472"
"2015/11/10 09:12:24","6","-0.434","9.677","103607","139.933168","patrol01","37.518175","1447114458826","20151110_091224","-0.476"
"2015/11/10 09:12:24","6","-0.431","9.677","103608","139.933168","patrol01","37.518175","1447114458927","20151110_091224","-0.477"
"2015/11/10 09:12:24","6","-0.43","9.675","103609","139.933168","patrol01","37.518175","1447114459027","20151110_091224","-0.474"
"2015/11/10 09:12:24","6","-0.437","9.678","103610","139.933168","patrol01","37.518175","1447114459123","20151110_091224","-0.476"
"2015/11/10 09:12:24","6","-0.435","9.68","103611","139.933168","patrol01","37.518175","1447114459224","20151110_091224","-0.475"
"2015/11/10 09:12:24","6","-0.431","9.678","103612","139.933168","patrol01","37.518175","1447114459324","20151110_091224","-0.475"
"2015/11/10 09:12:24","6","-0.431","9.679","103613","139.933168","patrol01","37.518175","1447114459425","20151110_091224","-0.476"
"2015/11/10 09:12:24","6","-0.435","9.677","103614","139.933168","patrol01","37.518175","1447114459526","20151110_091224","-0.475"
"2015/11/10 09:12:24","6","-0.433","9.678","103615","139.933168","patrol01","37.518175","1447114459627","20151110_091224","-0.474"
"2015/11/10 09:12:24","6","-0.432","9.682","103616","139.933168","patrol01","37.518175","1447114459727","20151110_091224","-0.472"
"2015/11/10 09:12:24","6","-0.432","9.682","103617","139.933168","patrol01","37.518175","1447114459823","20151110_091224","-0.471"
"2015/11/10 09:12:24","6","-0.434","9.682","103618","139.933168","patrol01","37.518175","1447114459924","20151110_091224","-0.472"
"2015/11/10 09:12:24","6","-0.435","9.68","103619","139.933168","patrol01","37.518175","1447114460024","20151110_091224","-0.47"
"2015/11/10 09:12:24","6","-0.434","9.677","103620","139.933168","patrol01","37.518175","1447114460125","20151110_091224","-0.475"
"2015/11/10 09:12:24","6","-0.435","9.68","103621","139.933168","patrol01","37.518175","1447114460226","20151110_091224","-0.477"
"2015/11/10 09:12:24","6","-0.436","9.683","103622","139.933168","patrol01","37.518175","1447114460326","20151110_091224","-0.478"
"2015/11/10 09:12:24","6","-0.436","9.678","103623","139.933168","patrol01","37.518175","1447114460427","20151110_091224","-0.477"
"2015/11/10 09:12:24","6","-0.438","9.677","103624","139.933168","patrol01","37.518175","1447114460523","20151110_091224","-0.475"
"2015/11/10 09:12:24","6","-0.438","9.675","103625","139.933168","patrol01","37.518175","1447114460623","20151110_091224","-0.474"
"2015/11/10 09:12:24","6","-0.436","9.675","103626","139.933168","patrol01","37.518175","1447114460724","20151110_091224","-0.473"
"2015/11/10 09:12:24","6","-0.433","9.675","103627","139.933168","patrol01","37.518175","1447114460825","20151110_091224","-0.47"
"2015/11/10 09:12:24","6","-0.432","9.676","103628","139.933168","patrol01","37.518175","1447114460926","20151110_091224","-0.468"
"2015/11/10 09:12:24","6","-0.434","9.675","103629","139.933168","patrol01","37.518175","1447114461026","20151110_091224","-0.472"
"2015/11/10 09:12:24","6","-0.431","9.678","103630","139.933168","patrol01","37.518175","1447114461127","20151110_091224","-0.474"
"2015/11/10 09:12:24","6","-0.434","9.679","103631","139.933168","patrol01","37.518175","1447114461223","20151110_091224","-0.474"
"2015/11/10 09:12:24","6","-0.431","9.68","103632","139.933168","patrol01","37.518175","1447114461324","20151110_091224","-0.471"
"2015/11/10 09:12:24","6","-0.432","9.68","103633","139.933168","patrol01","37.518175","1447114461424","20151110_091224","-0.471"
"2015/11/10 09:12:24","6","-0.431","9.679","103634","139.933168","patrol01","37.518175","1447114461525","20151110_091224","-0.471"
"2015/11/10 09:12:24","6","-0.428","9.675","103635","139.933168","patrol01","37.518175","1447114461626","20151110_091224","-0.47"
"2015/11/10 09:12:24","6","-0.425","9.678","103636","139.933168","patrol01","37.518175","1447114461726","20151110_091224","-0.472"
"2015/11/10 09:12:24","6","-0.427","9.677","103637","139.933168","patrol01","37.518175","1447114461827","20151110_091224","-0.473"
"2015/11/10 09:12:24","6","-0.433","9.674","103638","139.933168","patrol01","37.518175","1447114461923","20151110_091224","-0.471"
"2015/11/10 09:12:24","6","-0.432","9.674","103639","139.933168","patrol01","37.518175","1447114462023","20151110_091224","-0.474"
"2015/11/10 09:12:24","6","-0.43","9.676","103640","139.933168","patrol01","37.518175","1447114462124","20151110_091224","-0.475"
"2015/11/10 09:12:24","6","-0.431","9.677","103641","139.933168","patrol01","37.518175","1447114462225","20151110_091224","-0.47"
"2015/11/10 09:12:24","6","-0.435","9.675","103642","139.933168","patrol01","37.518175","1447114462326","20151110_091224","-0.471"
"2015/11/10 09:12:24","6","-0.433","9.676","103643","139.933168","patrol01","37.518175","1447114462426","20151110_091224","-0.472"
"2015/11/10 09:12:24","6","-0.429","9.679","103644","139.933168","patrol01","37.518175","1447114462527","20151110_091224","-0.474"
"2015/11/10 09:12:24","6","-0.435","9.676","103645","139.933168","patrol01","37.518175","1447114462623","20151110_091224","-0.472"
"2015/11/10 09:12:24","6","-0.433","9.676","103646","139.933168","patrol01","37.518175","1447114462723","20151110_091224","-0.472"
"2015/11/10 09:12:24","6","-0.431","9.676","103647","139.933168","patrol01","37.518175","1447114462824","20151110_091224","-0.476"
"2015/11/10 09:12:24","6","-0.427","9.677","103648","139.933168","patrol01","37.518175","1447114462925","20151110_091224","-0.478"
"2015/11/10 09:12:24","6","-0.43","9.676","103649","139.933168","patrol01","37.518175","1447114463025","20151110_091224","-0.473"
"2015/11/10 09:12:24","6","-0.429","9.676","103650","139.933168","patrol01","37.518175","1447114463126","20151110_091224","-0.473"
"2015/11/10 09:12:24","6","-0.429","9.678","103651","139.933168","patrol01","37.518175","1447114463227","20151110_091224","-0.473"
"2015/11/10 09:12:24","6","-0.435","9.677","103652","139.933168","patrol01","37.518175","1447114463328","20151110_091224","-0.473"
"2015/11/10 09:12:24","6","-0.432","9.677","103653","139.933168","patrol01","37.518175","1447114463423","20151110_091224","-0.472"
"2015/11/10 09:12:24","6","-0.43","9.677","103654","139.933168","patrol01","37.518175","1447114463524","20151110_091224","-0.473"
"2015/11/10 09:12:24","6","-0.431","9.677","103655","139.933168","patrol01","37.518175","1447114463625","20151110_091224","-0.473"
"2015/11/10 09:12:24","6","-0.432","9.677","103656","139.933168","patrol01","37.518175","1447114463725","20151110_091224","-0.471"
"2015/11/10 09:12:24","6","-0.426","9.681","103657","139.933168","patrol01","37.518175","1447114463826","20151110_091224","-0.47"
"2015/11/10 09:12:24","6","-0.429","9.678","103658","139.933168","patrol01","37.518175","1447114463927","20151110_091224","-0.473"
"2015/11/10 09:12:24","6","-0.434","9.675","103659","139.933168","patrol01","37.518175","1447114464028","20151110_091224","-0.471"
"2015/11/10 09:12:24","6","-0.43","9.677","103660","139.933168","patrol01","37.518175","1447114464123","20151110_091224","-0.472"
"2015/11/10 09:12:24","6","-0.429","9.677","103661","139.933168","patrol01","37.518175","1447114464224","20151110_091224","-0.472"
"2015/11/10 09:12:24","6","-0.435","9.677","103662","139.933168","patrol01","37.518175","1447114464325","20151110_091224","-0.466"
"2015/11/10 09:12:24","6","-0.438","9.675","103663","139.933168","patrol01","37.518175","1447114464425","20151110_091224","-0.473"
"2015/11/10 09:12:24","6","-0.425","9.678","103664","139.933168","patrol01","37.518175","1447114464526","20151110_091224","-0.479"
"2015/11/10 09:12:24","6","-0.428","9.682","103665","139.933168","patrol01","37.518175","1447114464627","20151110_091224","-0.469"
"2015/11/10 09:12:24","6","-0.437","9.677","103666","139.933168","patrol01","37.518175","1447114464727","20151110_091224","-0.463"
"2015/11/10 09:12:24","6","-0.434","9.677","103667","139.933168","patrol01","37.518175","1447114464823","20151110_091224","-0.469"
"2015/11/10 09:12:24","6","-0.427","9.682","103668","139.933168","patrol01","37.518175","1447114464924","20151110_091224","-0.477"
"2015/11/10 09:12:24","6","-0.439","9.681","103669","139.933168","patrol01","37.518175","1447114465025","20151110_091224","-0.474"
"2015/11/10 09:12:24","6","-0.44","9.674","103670","139.933168","patrol01","37.518175","1447114465125","20151110_091224","-0.468"
"2015/11/10 09:12:24","6","-0.431","9.676","103671","139.933168","patrol01","37.518175","1447114465226","20151110_091224","-0.47"
"2015/11/10 09:12:24","6","-0.434","9.677","103672","139.933168","patrol01","37.518175","1447114465327","20151110_091224","-0.472"
"2015/11/10 09:12:24","6","-0.436","9.681","103673","139.933168","patrol01","37.518175","1447114465427","20151110_091224","-0.475"
"2015/11/10 09:12:24","6","-0.426","9.676","103674","139.933168","patrol01","37.518175","1447114465523","20151110_091224","-0.476"
"2015/11/10 09:12:24","6","-0.428","9.677","103675","139.933168","patrol01","37.518175","1447114465624","20151110_091224","-0.47"
"2015/11/10 09:12:24","6","-0.443","9.677","103676","139.933168","patrol01","37.518175","1447114465724","20151110_091224","-0.459"
"2015/11/10 09:12:24","6","-0.428","9.68","103677","139.933168","patrol01","37.518175","1447114465825","20151110_091224","-0.469"
"2015/11/10 09:12:24","6","-0.424","9.68","103678","139.933168","patrol01","37.518176","1447114465926","20151110_091224","-0.482"
"2015/11/10 09:12:24","6","-0.435","9.679","103679","139.933168","patrol01","37.518176","1447114466027","20151110_091224","-0.473"
"2015/11/10 09:12:24","6","-0.44","9.673","103680","139.933168","patrol01","37.518176","1447114466127","20151110_091224","-0.462"
"2015/11/10 09:12:24","6","-0.429","9.677","103681","139.933168","patrol01","37.518176","1447114466223","20151110_091224","-0.47"
"2015/11/10 09:12:24","6","-0.433","9.677","103682","139.933168","patrol01","37.518176","1447114466324","20151110_091224","-0.481"
"2015/11/10 09:12:24","6","-0.438","9.674","103683","139.933168","patrol01","37.518176","1447114466424","20151110_091224","-0.475"
"2015/11/10 09:12:24","6","-0.431","9.678","103684","139.933168","patrol01","37.518176","1447114466525","20151110_091224","-0.464"
"2015/11/10 09:12:24","6","-0.427","9.675","103685","139.933168","patrol01","37.518176","1447114466626","20151110_091224","-0.467"
"2015/11/10 09:12:24","6","-0.432","9.678","103686","139.933168","patrol01","37.518176","1447114466726","20151110_091224","-0.477"
"2015/11/10 09:12:24","6","-0.442","9.677","103687","139.933168","patrol01","37.518176","1447114466827","20151110_091224","-0.48"
"2015/11/10 09:12:24","6","-0.431","9.673","103688","139.933168","patrol01","37.518176","1447114466923","20151110_091224","-0.476"
"2015/11/10 09:12:24","6","-0.432","9.676","103689","139.933168","patrol01","37.518176","1447114467024","20151110_091224","-0.472"
"2015/11/10 09:12:24","6","-0.436","9.68","103690","139.933168","patrol01","37.518176","1447114467124","20151110_091224","-0.468"
"2015/11/10 09:12:24","6","-0.436","9.676","103691","139.933168","patrol01","37.518176","1447114467225","20151110_091224","-0.468"
"2015/11/10 09:12:24","6","-0.432","9.68","103692","139.933168","patrol01","37.518176","1447114467326","20151110_091224","-0.48"
"2015/11/10 09:12:24","6","-0.434","9.677","103693","139.933168","patrol01","37.518176","1447114467426","20151110_091224","-0.477"
"2015/11/10 09:12:24","6","-0.437","9.678","103694","139.933168","patrol01","37.518176","1447114467527","20151110_091224","-0.466"
"2015/11/10 09:12:24","6","-0.432","9.682","103695","139.933168","patrol01","37.518176","1447114467623","20151110_091224","-0.468"
"2015/11/10 09:12:24","6","-0.431","9.676","103696","139.933168","patrol01","37.518176","1447114467724","20151110_091224","-0.475"
"2015/11/10 09:12:24","6","-0.435","9.678","103697","139.933168","patrol01","37.518176","1447114467824","20151110_091224","-0.476"
"2015/11/10 09:12:24","6","-0.434","9.676","103698","139.933168","patrol01","37.518176","1447114467925","20151110_091224","-0.473"
"2015/11/10 09:12:24","6","-0.429","9.677","103699","139.933168","patrol01","37.518176","1447114468026","20151110_091224","-0.471"
"2015/11/10 09:12:24","6","-0.436","9.679","103700","139.933168","patrol01","37.518176","1447114468126","20151110_091224","-0.47"
"2015/11/10 09:12:24","6","-0.436","9.676","103701","139.933168","patrol01","37.518176","1447114468227","20151110_091224","-0.468"
"2015/11/10 09:12:24","6","-0.434","9.677","103702","139.933168","patrol01","37.518176","1447114468328","20151110_091224","-0.47"
"2015/11/10 09:12:24","6","-0.438","9.677","103703","139.933168","patrol01","37.518176","1447114468423","20151110_091224","-0.471"
"2015/11/10 09:12:24","6","-0.441","9.678","103704","139.933168","patrol01","37.518176","1447114468529","20151110_091224","-0.476"
"2015/11/10 09:12:24","6","-0.434","9.675","103705","139.933168","patrol01","37.518176","1447114468625","20151110_091224","-0.474"
"2015/11/10 09:12:24","6","-0.432","9.675","103706","139.933168","patrol01","37.518176","1447114468724","20151110_091224","-0.464"
"2015/11/10 09:12:24","6","-0.44","9.672","103707","139.933168","patrol01","37.518176","1447114468826","20151110_091224","-0.467"
"2015/11/10 09:12:24","6","-0.43","9.678","103708","139.933168","patrol01","37.518175","1447114468925","20151110_091224","-0.476"
"2015/11/10 09:12:24","6","-0.424","9.677","103709","139.933168","patrol01","37.518175","1447114469023","20151110_091224","-0.475"
"2015/11/10 09:12:24","6","-0.436","9.675","103710","139.933168","patrol01","37.518175","1447114469123","20151110_091224","-0.469"
"2015/11/10 09:12:24","6","-0.44","9.672","103711","139.933168","patrol01","37.518175","1447114469224","20151110_091224","-0.467"
"2015/11/10 09:12:24","6","-0.432","9.683","103712","139.933168","patrol01","37.518175","1447114469325","20151110_091224","-0.477"
"2015/11/10 09:12:24","6","-0.427","9.679","103713","139.933168","patrol01","37.518175","1447114469425","20151110_091224","-0.476"
"2015/11/10 09:12:24","6","-0.44","9.678","103714","139.933168","patrol01","37.518175","1447114469526","20151110_091224","-0.461"
"2015/11/10 09:12:24","6","-0.436","9.68","103715","139.933168","patrol01","37.518175","1447114469627","20151110_091224","-0.459"
"2015/11/10 09:12:24","6","-0.433","9.678","103716","139.933168","patrol01","37.518175","1447114469723","20151110_091224","-0.473"
"2015/11/10 09:12:24","6","-0.435","9.682","103717","139.933168","patrol01","37.518175","1447114469823","20151110_091224","-0.482"
"2015/11/10 09:12:24","6","-0.439","9.678","103718","139.933168","patrol01","37.518175","1447114469924","20151110_091224","-0.473"
"2015/11/10 09:12:24","6","-0.435","9.675","103719","139.933168","patrol01","37.518175","1447114470025","20151110_091224","-0.463"
"2015/11/10 09:12:24","6","-0.431","9.678","103720","139.933168","patrol01","37.518175","1447114470125","20151110_091224","-0.469"
"2015/11/10 09:12:24","6","-0.434","9.681","103721","139.933168","patrol01","37.518175","1447114470226","20151110_091224","-0.477"
"2015/11/10 09:12:24","6","-0.434","9.678","103722","139.933168","patrol01","37.518175","1447114470327","20151110_091224","-0.475"
"2015/11/10 09:12:24","6","-0.426","9.68","103723","139.933168","patrol01","37.518175","1447114470428","20151110_091224","-0.469"
"2015/11/10 09:12:24","6","-0.43","9.678","103724","139.933168","patrol01","37.518175","1447114470523","20151110_091224","-0.47"
"2015/11/10 09:12:24","6","-0.429","9.682","103725","139.933168","patrol01","37.518175","1447114470624","20151110_091224","-0.471"
"2015/11/10 09:12:24","6","-0.426","9.679","103726","139.933168","patrol01","37.518175","1447114470725","20151110_091224","-0.478"
"2015/11/10 09:12:24","6","-0.434","9.68","103727","139.933168","patrol01","37.518175","1447114470825","20151110_091224","-0.474"
"2015/11/10 09:12:24","6","-0.431","9.679","103728","139.933168","patrol01","37.518176","1447114470926","20151110_091224","-0.46"
"2015/11/10 09:12:24","6","-0.426","9.676","103729","139.933168","patrol01","37.518176","1447114471027","20151110_091224","-0.463"
"2015/11/10 09:12:24","6","-0.436","9.674","103730","139.933168","patrol01","37.518176","1447114471127","20151110_091224","-0.47"
"2015/11/10 09:12:24","6","-0.443","9.68","103731","139.933168","patrol01","37.518176","1447114471223","20151110_091224","-0.478"
"2015/11/10 09:12:24","6","-0.43","9.678","103732","139.933168","patrol01","37.518176","1447114471324","20151110_091224","-0.472"
"2015/11/10 09:12:24","6","-0.428","9.683","103733","139.933168","patrol01","37.518176","1447114471425","20151110_091224","-0.472"
"2015/11/10 09:12:24","6","-0.44","9.674","103734","139.933168","patrol01","37.518176","1447114471525","20151110_091224","-0.471"
"2015/11/10 09:12:24","6","-0.433","9.673","103735","139.933168","patrol01","37.518176","1447114471626","20151110_091224","-0.463"
"2015/11/10 09:12:24","6","-0.424","9.675","103736","139.933168","patrol01","37.518176","1447114471727","20151110_091224","-0.468"
"2015/11/10 09:12:24","6","-0.42","9.676","103737","139.933168","patrol01","37.518176","1447114471827","20151110_091224","-0.474"
"2015/11/10 09:12:24","6","-0.428","9.678","103738","139.933168","patrol01","37.518176","1447114471923","20151110_091224","-0.469"
"2015/11/10 09:12:24","6","-0.436","9.69","103739","139.933168","patrol01","37.518176","1447114472024","20151110_091224","-0.461"
"2015/11/10 09:12:24","6","-0.433","9.674","103740","139.933168","patrol01","37.518176","1447114472124","20151110_091224","-0.467"
