"measurement_datetime","gps_error_meter","accel_y_longitudinal","accel_z_vertical","oid","longitude","car_name","latitude","measurement_ms","measurement_data_id","accel_x_transverse"
"2015/12/18 08:39:34","25","0.638","9.67","4354929","139.891655","patrol02","37.500366","1450395576321","20151218_083934","0.177"
"2015/12/18 08:39:34","25","0.571","9.757","4354930","139.891655","patrol02","37.500365","1450395576422","20151218_083934","0.201"
"2015/12/18 08:39:34","25","0.648","9.724","4354931","139.891655","patrol02","37.500365","1450395576518","20151218_083934","0.258"
"2015/12/18 08:39:34","25","0.646","9.725","4354932","139.891655","patrol02","37.500365","1450395576618","20151218_083934","0.393"
"2015/12/18 08:39:34","25","0.652","9.702","4354933","139.891655","patrol02","37.500364","1450395576719","20151218_083934","0.35"
"2015/12/18 08:39:34","25","0.634","9.644","4354934","139.891655","patrol02","37.500364","1450395576820","20151218_083934","0.183"
"2015/12/18 08:39:34","25","0.629","9.627","4354935","139.891655","patrol02","37.500364","1450395576921","20151218_083934","0.094"
"2015/12/18 08:39:34","25","0.647","9.651","4354936","139.891655","patrol02","37.500363","1450395577021","20151218_083934","0.138"
"2015/12/18 08:39:34","25","0.632","9.709","4354937","139.891655","patrol02","37.500363","1450395577122","20151218_083934","0.213"
"2015/12/18 08:39:34","20","0.645","9.748","4354938","139.891656","patrol02","37.500363","1450395577218","20151218_083934","0.182"
"2015/12/18 08:39:34","20","0.636","9.709","4354939","139.891658","patrol02","37.500363","1450395577318","20151218_083934","0.092"
"2015/12/18 08:39:34","20","0.709","9.668","4354940","139.89166","patrol02","37.500362","1450395577419","20151218_083934","0.047"
"2015/12/18 08:39:34","20","0.693","9.653","4354941","139.891662","patrol02","37.500362","1450395577520","20151218_083934","0.073"
"2015/12/18 08:39:34","20","0.6","9.641","4354942","139.891664","patrol02","37.500362","1450395577621","20151218_083934","0.118"
"2015/12/18 08:39:34","20","0.612","9.613","4354943","139.891666","patrol02","37.500362","1450395577721","20151218_083934","0.192"
"2015/12/18 08:39:34","20","0.592","9.605","4354944","139.891668","patrol02","37.500362","1450395577822","20151218_083934","0.343"
"2015/12/18 08:39:34","20","0.508","9.616","4354945","139.89167","patrol02","37.500361","1450395577922","20151218_083934","0.356"
"2015/12/18 08:39:34","20","0.423","9.619","4354946","139.891672","patrol02","37.500361","1450395578018","20151218_083934","0.273"
"2015/12/18 08:39:34","20","0.287","9.722","4354947","139.891674","patrol02","37.500361","1450395578119","20151218_083934","0.331"
"2015/12/18 08:39:34","16","0.171","9.788","4354948","139.891674","patrol02","37.500361","1450395578219","20151218_083934","0.373"
"2015/12/18 08:39:34","16","0.239","9.712","4354949","139.891674","patrol02","37.500362","1450395578320","20151218_083934","0.397"
"2015/12/18 08:39:34","16","0.178","9.71","4354950","139.891675","patrol02","37.500362","1450395578421","20151218_083934","0.539"
"2015/12/18 08:39:34","16","0.226","9.728","4354951","139.891675","patrol02","37.500363","1450395578521","20151218_083934","0.577"
"2015/12/18 08:39:34","16","0.274","9.699","4354952","139.891675","patrol02","37.500363","1450395578622","20151218_083934","0.546"
"2015/12/18 08:39:34","16","0.234","9.631","4354953","139.891675","patrol02","37.500364","1450395578718","20151218_083934","0.453"
"2015/12/18 08:39:34","16","0.19","9.624","4354954","139.891675","patrol02","37.500364","1450395578819","20151218_083934","0.445"
"2015/12/18 08:39:34","16","0.189","9.652","4354955","139.891676","patrol02","37.500365","1450395578919","20151218_083934","0.45"
"2015/12/18 08:39:34","16","0.245","9.726","4354956","139.891676","patrol02","37.500365","1450395579020","20151218_083934","0.407"
"2015/12/18 08:39:34","16","0.218","9.861","4354957","139.891676","patrol02","37.500366","1450395579121","20151218_083934","0.495"
"2015/12/18 08:39:34","14","0.27","9.737","4354958","139.891677","patrol02","37.500367","1450395579221","20151218_083934","0.475"
"2015/12/18 08:39:34","14","0.329","9.658","4354959","139.891677","patrol02","37.500367","1450395579322","20151218_083934","0.626"
"2015/12/18 08:39:34","14","0.408","9.613","4354960","139.891678","patrol02","37.500368","1450395579418","20151218_083934","0.702"
"2015/12/18 08:39:34","14","0.44","9.489","4354961","139.891679","patrol02","37.500369","1450395579518","20151218_083934","0.407"
"2015/12/18 08:39:34","14","0.347","9.503","4354962","139.891679","patrol02","37.500369","1450395579619","20151218_083934","0.127"
"2015/12/18 08:39:34","14","0.221","9.655","4354963","139.89168","patrol02","37.50037","1450395579720","20151218_083934","0.037"
"2015/12/18 08:39:34","14","0.166","9.699","4354964","139.891681","patrol02","37.500371","1450395579821","20151218_083934","0.011"
"2015/12/18 08:39:34","14","0.102","9.76","4354965","139.891682","patrol02","37.500372","1450395579921","20151218_083934","0.175"
"2015/12/18 08:39:34","14","0.165","9.736","4354966","139.891682","patrol02","37.500372","1450395580022","20151218_083934","0.249"
"2015/12/18 08:39:34","14","0.139","9.53","4354967","139.891683","patrol02","37.500373","1450395580118","20151218_083934","0.1"
"2015/12/18 08:39:34","12","-0.069","9.548","4354968","139.891683","patrol02","37.500373","1450395580218","20151218_083934","0.057"
"2015/12/18 08:39:34","12","-0.161","9.758","4354969","139.891684","patrol02","37.500372","1450395580319","20151218_083934","0.288"
"2015/12/18 08:39:34","12","-0.098","9.785","4354970","139.891684","patrol02","37.500372","1450395580420","20151218_083934","0.426"
"2015/12/18 08:39:34","12","-0.063","9.74","4354971","139.891684","patrol02","37.500371","1450395580521","20151218_083934","0.415"
"2015/12/18 08:39:34","12","-0.117","9.673","4354972","139.891684","patrol02","37.500371","1450395580621","20151218_083934","0.235"
"2015/12/18 08:39:34","12","-0.226","9.522","4354973","139.891685","patrol02","37.500371","1450395580722","20151218_083934","-0.054"
"2015/12/18 08:39:34","12","-0.29","9.626","4354974","139.891685","patrol02","37.50037","1450395580818","20151218_083934","0.039"
"2015/12/18 08:39:34","12","-0.26","9.735","4354975","139.891685","patrol02","37.50037","1450395580918","20151218_083934","0.195"
"2015/12/18 08:39:34","12","-0.25","9.725","4354976","139.891686","patrol02","37.500369","1450395581019","20151218_083934","0.278"
"2015/12/18 08:39:34","12","-0.219","9.698","4354977","139.891686","patrol02","37.500369","1450395581120","20151218_083934","0.276"
"2015/12/18 08:39:34","11","-0.27","9.628","4354978","139.891688","patrol02","37.50037","1450395581220","20151218_083934","0.198"
"2015/12/18 08:39:34","11","-0.256","9.586","4354979","139.89169","patrol02","37.50037","1450395581321","20151218_083934","0.097"
"2015/12/18 08:39:34","11","-0.223","9.65","4354980","139.891692","patrol02","37.500371","1450395581422","20151218_083934","0.137"
"2015/12/18 08:39:34","11","-0.212","9.711","4354981","139.891694","patrol02","37.500372","1450395581518","20151218_083934","0.32"
"2015/12/18 08:39:34","11","-0.159","9.689","4354982","139.891696","patrol02","37.500373","1450395581623","20151218_083934","0.381"
"2015/12/18 08:39:34","11","-0.166","9.618","4354983","139.891698","patrol02","37.500374","1450395581719","20151218_083934","0.273"
"2015/12/18 08:39:34","11","-0.187","9.53","4354984","139.8917","patrol02","37.500374","1450395581818","20151218_083934","0.009"
"2015/12/18 08:39:34","11","-0.299","9.609","4354985","139.891702","patrol02","37.500375","1450395581920","20151218_083934","-0.079"
"2015/12/18 08:39:34","11","-0.283","9.606","4354986","139.891705","patrol02","37.500376","1450395582019","20151218_083934","-0.167"
"2015/12/18 08:39:34","11","-0.353","9.666","4354987","139.891707","patrol02","37.500377","1450395582122","20151218_083934","-0.147"
"2015/12/18 08:39:34","9","-0.362","9.774","4354988","139.89171","patrol02","37.500376","1450395582221","20151218_083934","-0.048"
"2015/12/18 08:39:34","9","-0.351","9.675","4354989","139.891714","patrol02","37.500374","1450395582318","20151218_083934","-0.141"
"2015/12/18 08:39:34","9","-0.471","9.718","4354990","139.891718","patrol02","37.500373","1450395582419","20151218_083934","-0.187"
"2015/12/18 08:39:34","9","-0.427","9.665","4354991","139.891722","patrol02","37.500371","1450395582520","20151218_083934","-0.3"
"2015/12/18 08:39:34","9","-0.394","9.582","4354992","139.891726","patrol02","37.50037","1450395582619","20151218_083934","-0.344"
"2015/12/18 08:39:34","9","-0.292","9.493","4354993","139.89173","patrol02","37.500368","1450395582720","20151218_083934","-0.274"
"2015/12/18 08:39:34","9","-0.205","9.391","4354994","139.891734","patrol02","37.500367","1450395582821","20151218_083934","-0.126"
"2015/12/18 08:39:34","9","-0.158","9.469","4354995","139.891738","patrol02","37.500365","1450395582921","20151218_083934","0.045"
"2015/12/18 08:39:34","9","-0.133","9.536","4354996","139.891742","patrol02","37.500364","1450395583022","20151218_083934","0.007"
"2015/12/18 08:39:34","9","-0.283","9.522","4354997","139.891745","patrol02","37.500362","1450395583118","20151218_083934","-0.105"
"2015/12/18 08:39:34","10","-0.466","9.51","4354998","139.891748","patrol02","37.500362","1450395583218","20151218_083934","-0.231"
"2015/12/18 08:39:34","10","-0.712","9.614","4354999","139.891751","patrol02","37.500362","1450395583319","20151218_083934","-0.169"
"2015/12/18 08:39:34","10","-0.829","9.812","4355000","139.891753","patrol02","37.500362","1450395583420","20151218_083934","-0.113"
"2015/12/18 08:39:34","10","-0.774","9.926","4355001","139.891756","patrol02","37.500362","1450395583521","20151218_083934","-0.126"
"2015/12/18 08:39:34","10","-0.91","9.944","4355002","139.891759","patrol02","37.500362","1450395583621","20151218_083934","0.037"
"2015/12/18 08:39:34","10","-0.752","9.634","4355003","139.891761","patrol02","37.500362","1450395583722","20151218_083934","0.024"
"2015/12/18 08:39:34","10","-0.616","9.495","4355004","139.891764","patrol02","37.500362","1450395583818","20151218_083934","0.107"
"2015/12/18 08:39:34","10","-0.65","9.518","4355005","139.891766","patrol02","37.500362","1450395583918","20151218_083934","0.086"
"2015/12/18 08:39:34","10","-0.681","9.704","4355006","139.891769","patrol02","37.500362","1450395584019","20151218_083934","-0.033"
"2015/12/18 08:39:34","10","-0.708","9.737","4355007","139.891771","patrol02","37.500362","1450395584120","20151218_083934","-0.171"
"2015/12/18 08:39:34","8","-0.76","9.743","4355008","139.891774","patrol02","37.500362","1450395584221","20151218_083934","-0.114"
"2015/12/18 08:39:34","8","-0.628","9.643","4355009","139.891778","patrol02","37.500362","1450395584321","20151218_083934","-0.1"
"2015/12/18 08:39:34","8","-0.719","9.535","4355010","139.891781","patrol02","37.500362","1450395584422","20151218_083934","-0.135"
"2015/12/18 08:39:34","8","-0.781","9.544","4355011","139.891784","patrol02","37.500362","1450395584518","20151218_083934","-0.215"
"2015/12/18 08:39:34","8","-0.834","9.697","4355012","139.891787","patrol02","37.500362","1450395584618","20151218_083934","-0.151"
"2015/12/18 08:39:34","8","-0.916","9.831","4355013","139.89179","patrol02","37.500361","1450395584719","20151218_083934","0.01"
"2015/12/18 08:39:34","8","-0.771","9.677","4355014","139.891793","patrol02","37.500361","1450395584820","20151218_083934","0.13"
"2015/12/18 08:39:34","8","-0.695","9.564","4355015","139.891797","patrol02","37.500361","1450395584920","20151218_083934","0.189"
"2015/12/18 08:39:34","8","-0.747","9.555","4355016","139.8918","patrol02","37.500361","1450395585021","20151218_083934","0.198"
"2015/12/18 08:39:34","8","-0.737","9.766","4355017","139.891803","patrol02","37.500361","1450395585122","20151218_083934","0.267"
"2015/12/18 08:39:34","7","-0.666","9.71","4355018","139.891806","patrol02","37.500361","1450395585218","20151218_083934","0.236"
"2015/12/18 08:39:34","7","-0.683","9.613","4355019","139.89181","patrol02","37.50036","1450395585318","20151218_083934","0.101"
"2015/12/18 08:39:34","7","-0.614","9.597","4355020","139.891814","patrol02","37.50036","1450395585419","20151218_083934","-0.1"
"2015/12/18 08:39:34","7","-0.668","9.441","4355021","139.891817","patrol02","37.50036","1450395585520","20151218_083934","-0.304"
"2015/12/18 08:39:34","7","-0.69","9.613","4355022","139.891821","patrol02","37.500359","1450395585620","20151218_083934","-0.198"
"2015/12/18 08:39:34","7","-0.652","9.796","4355023","139.891824","patrol02","37.500359","1450395585721","20151218_083934","0.201"
"2015/12/18 08:39:34","7","-0.688","9.833","4355024","139.891828","patrol02","37.500358","1450395585822","20151218_083934","0.425"
"2015/12/18 08:39:34","7","-0.612","9.742","4355025","139.891832","patrol02","37.500358","1450395585922","20151218_083934","0.432"
"2015/12/18 08:39:34","7","-0.696","9.612","4355026","139.891835","patrol02","37.500358","1450395586018","20151218_083934","0.334"
"2015/12/18 08:39:34","7","-0.62","9.754","4355027","139.891839","patrol02","37.500357","1450395586119","20151218_083934","0.39"
"2015/12/18 08:39:34","8","-0.529","9.771","4355028","139.891843","patrol02","37.500357","1450395586220","20151218_083934","0.394"
"2015/12/18 08:39:34","8","-0.463","9.666","4355029","139.891847","patrol02","37.500357","1450395586320","20151218_083934","0.253"
"2015/12/18 08:39:34","8","-0.389","9.57","4355030","139.891851","patrol02","37.500357","1450395586421","20151218_083934","0.15"
"2015/12/18 08:39:34","8","-0.381","9.593","4355031","139.891855","patrol02","37.500356","1450395586522","20151218_083934","0.175"
"2015/12/18 08:39:34","8","-0.224","9.743","4355032","139.891859","patrol02","37.500356","1450395586622","20151218_083934","0.218"
"2015/12/18 08:39:34","8","-0.242","9.794","4355033","139.891863","patrol02","37.500356","1450395586718","20151218_083934","0.38"
"2015/12/18 08:39:34","8","-0.223","9.758","4355034","139.891867","patrol02","37.500356","1450395586819","20151218_083934","0.399"
"2015/12/18 08:39:34","8","-0.191","9.666","4355035","139.891871","patrol02","37.500356","1450395586920","20151218_083934","0.446"
"2015/12/18 08:39:34","8","-0.283","9.667","4355036","139.891875","patrol02","37.500355","1450395587020","20151218_083934","0.387"
"2015/12/18 08:39:34","8","-0.303","9.789","4355037","139.89188","patrol02","37.500355","1450395587121","20151218_083934","0.437"
"2015/12/18 08:39:34","9","-0.285","9.893","4355038","139.891884","patrol02","37.500355","1450395587222","20151218_083934","0.404"
"2015/12/18 08:39:34","9","-0.283","9.904","4355039","139.891888","patrol02","37.500355","1450395587322","20151218_083934","0.284"
"2015/12/18 08:39:34","9","-0.343","9.806","4355040","139.891891","patrol02","37.500355","1450395587418","20151218_083934","0.17"
"2015/12/18 08:39:34","9","-0.33","9.743","4355041","139.891896","patrol02","37.500355","1450395587519","20151218_083934","0.15"
"2015/12/18 08:39:34","9","-0.389","9.62","4355042","139.8919","patrol02","37.500355","1450395587619","20151218_083934","0.108"
"2015/12/18 08:39:34","9","-0.36","9.737","4355043","139.891904","patrol02","37.500355","1450395587720","20151218_083934","0.217"
"2015/12/18 08:39:34","9","-0.294","9.817","4355044","139.891908","patrol02","37.500355","1450395587821","20151218_083934","0.386"
"2015/12/18 08:39:34","9","-0.369","9.892","4355045","139.891912","patrol02","37.500355","1450395587922","20151218_083934","0.509"
"2015/12/18 08:39:34","9","-0.279","9.801","4355046","139.891916","patrol02","37.500355","1450395588022","20151218_083934","0.367"
"2015/12/18 08:39:34","9","-0.222","9.442","4355047","139.89192","patrol02","37.500355","1450395588118","20151218_083934","0.211"
"2015/12/18 08:39:34","8","-0.228","9.411","4355048","139.891924","patrol02","37.500355","1450395588219","20151218_083934","0.17"
"2015/12/18 08:39:34","8","-0.288","9.514","4355049","139.891928","patrol02","37.500355","1450395588319","20151218_083934","-0.001"
"2015/12/18 08:39:34","8","-0.344","9.724","4355050","139.891932","patrol02","37.500355","1450395588420","20151218_083934","0.06"
"2015/12/18 08:39:34","8","-0.422","9.858","4355051","139.891936","patrol02","37.500356","1450395588521","20151218_083934","0.053"
"2015/12/18 08:39:34","8","-0.319","9.638","4355052","139.891941","patrol02","37.500356","1450395588621","20151218_083934","-0.065"
"2015/12/18 08:39:34","8","-0.356","9.679","4355053","139.891945","patrol02","37.500356","1450395588722","20151218_083934","0.184"
"2015/12/18 08:39:34","8","-0.167","9.549","4355054","139.891949","patrol02","37.500356","1450395588818","20151218_083934","0.218"
"2015/12/18 08:39:34","8","-0.253","9.579","4355055","139.891953","patrol02","37.500356","1450395588919","20151218_083934","0.31"
"2015/12/18 08:39:34","8","-0.311","9.653","4355056","139.891957","patrol02","37.500357","1450395589019","20151218_083934","0.144"
"2015/12/18 08:39:34","8","-0.241","9.78","4355057","139.891961","patrol02","37.500357","1450395589120","20151218_083934","0.14"
"2015/12/18 08:39:34","7","-0.394","9.795","4355058","139.891966","patrol02","37.500357","1450395589221","20151218_083934","0.076"
"2015/12/18 08:39:34","7","-0.291","9.738","4355059","139.89197","patrol02","37.500357","1450395589321","20151218_083934","0.074"
"2015/12/18 08:39:34","7","-0.221","9.553","4355060","139.891974","patrol02","37.500357","1450395589422","20151218_083934","0.162"
"2015/12/18 08:39:34","7","-0.323","9.503","4355061","139.891978","patrol02","37.500357","1450395589518","20151218_083934","0.22"
"2015/12/18 08:39:34","7","-0.304","9.586","4355062","139.891982","patrol02","37.500357","1450395589618","20151218_083934","0.308"
"2015/12/18 08:39:34","7","-0.321","9.533","4355063","139.891987","patrol02","37.500357","1450395589719","20151218_083934","0.516"
"2015/12/18 08:39:34","7","-0.298","9.479","4355064","139.891991","patrol02","37.500357","1450395589820","20151218_083934","0.655"
"2015/12/18 08:39:34","7","-0.268","9.482","4355065","139.891995","patrol02","37.500357","1450395589921","20151218_083934","0.688"
"2015/12/18 08:39:34","7","-0.391","9.776","4355066","139.891999","patrol02","37.500357","1450395590021","20151218_083934","0.546"
"2015/12/18 08:39:34","7","-0.367","9.802","4355067","139.892003","patrol02","37.500357","1450395590122","20151218_083934","0.441"
"2015/12/18 08:39:34","7","-0.449","9.613","4355068","139.892008","patrol02","37.500357","1450395590218","20151218_083934","0.301"
"2015/12/18 08:39:34","7","-0.465","9.557","4355069","139.892012","patrol02","37.500356","1450395590318","20151218_083934","0.207"
"2015/12/18 08:39:34","7","-0.369","9.627","4355070","139.892016","patrol02","37.500356","1450395590419","20151218_083934","0.166"
"2015/12/18 08:39:34","7","-0.317","9.358","4355071","139.892021","patrol02","37.500356","1450395590520","20151218_083934","0.546"
"2015/12/18 08:39:34","7","-0.864","10.287","4355072","139.892025","patrol02","37.500355","1450395590620","20151218_083934","0.225"
"2015/12/18 08:39:34","7","-0.995","11.337","4355073","139.892029","patrol02","37.500355","1450395590721","20151218_083934","0.09"
"2015/12/18 08:39:34","7","-1.014","10.906","4355074","139.892034","patrol02","37.500354","1450395590822","20151218_083934","-0.032"
"2015/12/18 08:39:34","7","-0.703","10.252","4355075","139.892038","patrol02","37.500354","1450395590918","20151218_083934","0.057"
"2015/12/18 08:39:34","7","-0.542","9.755","4355076","139.892042","patrol02","37.500354","1450395591018","20151218_083934","0.068"
"2015/12/18 08:39:34","7","-0.337","9.638","4355077","139.892046","patrol02","37.500353","1450395591119","20151218_083934","0.038"
"2015/12/18 08:39:34","7","-0.212","9.812","4355078","139.892051","patrol02","37.500353","1450395591220","20151218_083934","0.159"
"2015/12/18 08:39:34","7","-0.343","10.36","4355079","139.892054","patrol02","37.500352","1450395591320","20151218_083934","0.603"
"2015/12/18 08:39:34","7","-0.286","10.189","4355080","139.892058","patrol02","37.500352","1450395591421","20151218_083934","0.58"
"2015/12/18 08:39:34","7","0.546","9.563","4355081","139.892062","patrol02","37.500352","1450395591522","20151218_083934","0.473"
"2015/12/18 08:39:34","7","0.483","9.017","4355082","139.892066","patrol02","37.500351","1450395591623","20151218_083934","-0.177"
"2015/12/18 08:39:34","7","0.173","8.809","4355083","139.89207","patrol02","37.500351","1450395591718","20151218_083934","-0.719"
"2015/12/18 08:39:34","7","0.327","9.028","4355084","139.892074","patrol02","37.50035","1450395591819","20151218_083934","-0.719"
"2015/12/18 08:39:34","7","0.916","9.266","4355085","139.892078","patrol02","37.50035","1450395591920","20151218_083934","-0.173"
"2015/12/18 08:39:34","7","0.682","9.264","4355086","139.892082","patrol02","37.50035","1450395592020","20151218_083934","0.371"
"2015/12/18 08:39:34","7","0.49","9.47","4355087","139.892086","patrol02","37.500349","1450395592121","20151218_083934","0.624"
"2015/12/18 08:39:34","7","0.631","9.587","4355088","139.892089","patrol02","37.500349","1450395592222","20151218_083934","0.84"
"2015/12/18 08:39:34","7","0.454","9.678","4355089","139.892093","patrol02","37.500348","1450395592322","20151218_083934","0.601"
"2015/12/18 08:39:34","7","0.453","9.752","4355090","139.892097","patrol02","37.500348","1450395592418","20151218_083934","0.341"
"2015/12/18 08:39:34","7","0.408","9.657","4355091","139.892101","patrol02","37.500348","1450395592519","20151218_083934","0.117"
"2015/12/18 08:39:34","7","0.679","9.273","4355092","139.892104","patrol02","37.500347","1450395592619","20151218_083934","-0.212"
"2015/12/18 08:39:34","7","0.472","9.274","4355093","139.892108","patrol02","37.500347","1450395592720","20151218_083934","-0.482"
"2015/12/18 08:39:34","7","0.438","9.363","4355094","139.892112","patrol02","37.500346","1450395592821","20151218_083934","-0.636"
"2015/12/18 08:39:34","7","0.469","9.618","4355095","139.892115","patrol02","37.500346","1450395592922","20151218_083934","-0.159"
"2015/12/18 08:39:34","7","0.336","9.81","4355096","139.892119","patrol02","37.500346","1450395593022","20151218_083934","0.599"
"2015/12/18 08:39:34","7","0.31","9.98","4355097","139.892123","patrol02","37.500345","1450395593118","20151218_083934","1.046"
"2015/12/18 08:39:34","7","0.277","10.117","4355098","139.892126","patrol02","37.500345","1450395593219","20151218_083934","1.177"
"2015/12/18 08:39:34","7","0.288","10.028","4355099","139.89213","patrol02","37.500344","1450395593320","20151218_083934","0.921"
"2015/12/18 08:39:34","7","0.226","9.788","4355100","139.892134","patrol02","37.500343","1450395593420","20151218_083934","0.601"
"2015/12/18 08:39:34","7","0.299","9.59","4355101","139.892138","patrol02","37.500343","1450395593521","20151218_083934","0.466"
"2015/12/18 08:39:34","7","0.217","9.515","4355102","139.892141","patrol02","37.500342","1450395593622","20151218_083934","0.499"
"2015/12/18 08:39:34","7","0.088","9.591","4355103","139.892145","patrol02","37.500341","1450395593722","20151218_083934","0.664"
"2015/12/18 08:39:34","7","-0.032","9.777","4355104","139.892149","patrol02","37.500341","1450395593818","20151218_083934","0.713"
"2015/12/18 08:39:34","7","-0.193","9.946","4355105","139.892152","patrol02","37.50034","1450395593919","20151218_083934","0.647"
"2015/12/18 08:39:34","7","-0.145","9.952","4355106","139.892156","patrol02","37.500339","1450395594019","20151218_083934","0.57"
"2015/12/18 08:39:34","7","-0.059","9.801","4355107","139.89216","patrol02","37.500338","1450395594120","20151218_083934","0.438"
"2015/12/18 08:39:34","7","0.011","9.565","4355108","139.892163","patrol02","37.500338","1450395594221","20151218_083934","0.361"
"2015/12/18 08:39:34","7","-0.046","9.548","4355109","139.892166","patrol02","37.500337","1450395594322","20151218_083934","0.29"
"2015/12/18 08:39:34","7","-0.163","9.623","4355110","139.892169","patrol02","37.500336","1450395594422","20151218_083934","0.205"
"2015/12/18 08:39:34","7","-0.154","9.684","4355111","139.892172","patrol02","37.500335","1450395594518","20151218_083934","0.308"
"2015/12/18 08:39:34","7","-0.17","9.691","4355112","139.892175","patrol02","37.500334","1450395594619","20151218_083934","0.524"
"2015/12/18 08:39:34","7","-0.233","9.646","4355113","139.892178","patrol02","37.500334","1450395594719","20151218_083934","0.646"
"2015/12/18 08:39:34","7","-0.337","9.66","4355114","139.892181","patrol02","37.500333","1450395594820","20151218_083934","0.668"
"2015/12/18 08:39:34","7","-0.504","9.65","4355115","139.892184","patrol02","37.500332","1450395594921","20151218_083934","0.574"
"2015/12/18 08:39:34","7","-0.63","9.706","4355116","139.892186","patrol02","37.500331","1450395595021","20151218_083934","0.444"
"2015/12/18 08:39:34","7","-0.635","9.767","4355117","139.892189","patrol02","37.50033","1450395595122","20151218_083934","0.326"
"2015/12/18 08:39:34","7","-0.658","9.818","4355118","139.892192","patrol02","37.50033","1450395595218","20151218_083934","0.358"
"2015/12/18 08:39:34","7","-0.587","9.881","4355119","139.892194","patrol02","37.500329","1450395595319","20151218_083934","0.482"
"2015/12/18 08:39:34","7","-0.574","9.752","4355120","139.892196","patrol02","37.500328","1450395595419","20151218_083934","0.592"
"2015/12/18 08:39:34","7","-0.614","9.587","4355121","139.892198","patrol02","37.500328","1450395595520","20151218_083934","0.634"
"2015/12/18 08:39:34","7","-0.663","9.496","4355122","139.8922","patrol02","37.500327","1450395595621","20151218_083934","0.584"
"2015/12/18 08:39:34","7","-0.68","9.568","4355123","139.892202","patrol02","37.500326","1450395595721","20151218_083934","0.548"
"2015/12/18 08:39:34","7","-0.53","9.783","4355124","139.892205","patrol02","37.500325","1450395595822","20151218_083934","0.478"
"2015/12/18 08:39:34","7","-0.637","10.126","4355125","139.892207","patrol02","37.500325","1450395595923","20151218_083934","0.58"
"2015/12/18 08:39:34","7","-0.483","10.113","4355126","139.892209","patrol02","37.500324","1450395596018","20151218_083934","0.749"
"2015/12/18 08:39:34","7","-0.262","9.679","4355127","139.892211","patrol02","37.500323","1450395596124","20151218_083934","0.604"
"2015/12/18 08:39:34","7","-0.189","9.453","4355128","139.892213","patrol02","37.500323","1450395596220","20151218_083934","0.158"
"2015/12/18 08:39:34","7","0.064","9.447","4355129","139.892214","patrol02","37.500322","1450395596319","20151218_083934","-0.312"
"2015/12/18 08:39:34","7","0.365","9.44","4355130","139.892216","patrol02","37.500322","1450395596421","20151218_083934","-0.351"
"2015/12/18 08:39:34","7","0.671","9.524","4355131","139.892218","patrol02","37.500322","1450395596520","20151218_083934","0.073"
"2015/12/18 08:39:34","7","0.848","9.573","4355132","139.892219","patrol02","37.500321","1450395596618","20151218_083934","0.469"
"2015/12/18 08:39:34","7","0.971","9.571","4355133","139.892221","patrol02","37.500321","1450395596718","20151218_083934","0.614"
"2015/12/18 08:39:34","7","0.934","9.741","4355134","139.892223","patrol02","37.50032","1450395596819","20151218_083934","0.598"
"2015/12/18 08:39:34","7","0.861","9.812","4355135","139.892225","patrol02","37.50032","1450395596920","20151218_083934","0.362"
"2015/12/18 08:39:34","7","0.751","9.945","4355136","139.892226","patrol02","37.50032","1450395597021","20151218_083934","0.142"
"2015/12/18 08:39:34","7","0.757","9.946","4355137","139.892228","patrol02","37.500319","1450395597121","20151218_083934","-0.057"
"2015/12/18 08:39:34","6","0.744","9.762","4355138","139.89223","patrol02","37.500319","1450395597222","20151218_083934","-0.194"
"2015/12/18 08:39:34","6","0.802","9.602","4355139","139.892232","patrol02","37.500318","1450395597318","20151218_083934","-0.236"
"2015/12/18 08:39:34","6","0.818","9.598","4355140","139.892234","patrol02","37.500318","1450395597418","20151218_083934","-0.153"
"2015/12/18 08:39:34","6","0.865","9.629","4355141","139.892236","patrol02","37.500317","1450395597519","20151218_083934","-0.059"
"2015/12/18 08:39:34","6","0.865","9.709","4355142","139.892238","patrol02","37.500317","1450395597620","20151218_083934","0.146"
"2015/12/18 08:39:34","6","0.805","9.852","4355143","139.89224","patrol02","37.500316","1450395597720","20151218_083934","0.324"
"2015/12/18 08:39:34","6","0.846","9.744","4355144","139.892242","patrol02","37.500316","1450395597821","20151218_083934","0.203"
"2015/12/18 08:39:34","6","0.749","9.62","4355145","139.892244","patrol02","37.500315","1450395597922","20151218_083934","-0.008"
"2015/12/18 08:39:34","6","0.737","9.621","4355146","139.892246","patrol02","37.500315","1450395598018","20151218_083934","-0.324"
"2015/12/18 08:39:34","6","0.568","9.358","4355147","139.892248","patrol02","37.500314","1450395598118","20151218_083934","-0.765"
"2015/12/18 08:39:34","6","0.256","9.63","4355148","139.89225","patrol02","37.500314","1450395598219","20151218_083934","-0.793"
"2015/12/18 08:39:34","6","0.006","10.004","4355149","139.892252","patrol02","37.500314","1450395598320","20151218_083934","-0.49"
"2015/12/18 08:39:34","6","0.286","9.927","4355150","139.892253","patrol02","37.500314","1450395598420","20151218_083934","-0.749"
"2015/12/18 08:39:34","6","0.73","9.493","4355151","139.892255","patrol02","37.500314","1450395598521","20151218_083934","-1.06"
"2015/12/18 08:39:34","6","0.504","9.45","4355152","139.892257","patrol02","37.500314","1450395598622","20151218_083934","-1.027"
"2015/12/18 08:39:34","6","0.307","9.307","4355153","139.892259","patrol02","37.500314","1450395598723","20151218_083934","-0.988"
"2015/12/18 08:39:34","6","0.588","9.275","4355154","139.892261","patrol02","37.500314","1450395598818","20151218_083934","-0.82"
"2015/12/18 08:39:34","6","0.617","9.365","4355155","139.892262","patrol02","37.500314","1450395598919","20151218_083934","-0.453"
"2015/12/18 08:39:34","6","0.719","9.344","4355156","139.892264","patrol02","37.500314","1450395599020","20151218_083934","-0.453"
"2015/12/18 08:39:34","6","0.628","9.244","4355157","139.892266","patrol02","37.500314","1450395599120","20151218_083934","-0.806"
"2015/12/18 08:39:34","7","0.189","9.539","4355158","139.892268","patrol02","37.500314","1450395599221","20151218_083934","-1.092"
"2015/12/18 08:39:34","7","0.008","9.801","4355159","139.89227","patrol02","37.500315","1450395599322","20151218_083934","-1.333"
"2015/12/18 08:39:34","7","-0.019","9.8","4355160","139.892272","patrol02","37.500316","1450395599422","20151218_083934","-1.366"
"2015/12/18 08:39:34","7","-0.167","9.859","4355161","139.892274","patrol02","37.500317","1450395599518","20151218_083934","-1.12"
"2015/12/18 08:39:34","7","-0.053","9.807","4355162","139.892276","patrol02","37.500318","1450395599619","20151218_083934","-0.869"
"2015/12/18 08:39:34","7","0.053","9.569","4355163","139.892279","patrol02","37.500318","1450395599720","20151218_083934","-0.717"
"2015/12/18 08:39:34","7","-0.089","9.419","4355164","139.892281","patrol02","37.500319","1450395599820","20151218_083934","-0.622"
"2015/12/18 08:39:34","7","-0.122","9.46","4355165","139.892283","patrol02","37.50032","1450395599921","20151218_083934","-0.873"
"2015/12/18 08:39:34","7","-0.397","9.651","4355166","139.892285","patrol02","37.500321","1450395600022","20151218_083934","-1.166"
"2015/12/18 08:39:34","7","-0.38","9.846","4355167","139.892287","patrol02","37.500322","1450395600122","20151218_083934","-1.545"
"2015/12/18 08:39:34","6","-0.44","9.94","4355168","139.892289","patrol02","37.500323","1450395600218","20151218_083934","-1.77"
"2015/12/18 08:39:34","6","-0.443","9.794","4355169","139.892291","patrol02","37.500325","1450395600319","20151218_083934","-1.732"
"2015/12/18 08:39:34","6","-0.459","9.492","4355170","139.892293","patrol02","37.500327","1450395600419","20151218_083934","-1.772"
"2015/12/18 08:39:34","6","-0.416","9.218","4355171","139.892294","patrol02","37.500328","1450395600520","20151218_083934","-1.909"
"2015/12/18 08:39:34","6","-0.483","9.26","4355172","139.892296","patrol02","37.50033","1450395600621","20151218_083934","-1.868"
"2015/12/18 08:39:34","6","-0.5","9.518","4355173","139.892298","patrol02","37.500332","1450395600722","20151218_083934","-1.554"
"2015/12/18 08:39:34","6","-0.366","9.637","4355174","139.8923","patrol02","37.500334","1450395600822","20151218_083934","-1.147"
"2015/12/18 08:39:34","6","-0.397","9.775","4355175","139.892302","patrol02","37.500336","1450395600918","20151218_083934","-0.721"
"2015/12/18 08:39:34","6","-0.327","9.78","4355176","139.892303","patrol02","37.500337","1450395601019","20151218_083934","-0.458"
"2015/12/18 08:39:34","6","-0.185","9.763","4355177","139.892305","patrol02","37.500339","1450395601119","20151218_083934","-0.491"
"2015/12/18 08:39:34","6","-0.207","9.728","4355178","139.892307","patrol02","37.500341","1450395601220","20151218_083934","-0.764"
"2015/12/18 08:39:34","6","-0.324","9.697","4355179","139.892308","patrol02","37.500344","1450395601321","20151218_083934","-1.29"
"2015/12/18 08:39:34","6","-0.388","9.594","4355180","139.892309","patrol02","37.500346","1450395601422","20151218_083934","-1.658"
"2015/12/18 08:39:34","6","-0.397","9.449","4355181","139.89231","patrol02","37.500348","1450395601522","20151218_083934","-1.728"
"2015/12/18 08:39:34","6","-0.404","9.474","4355182","139.892311","patrol02","37.50035","1450395601618","20151218_083934","-1.453"
"2015/12/18 08:39:34","6","-0.277","9.533","4355183","139.892313","patrol02","37.500352","1450395601719","20151218_083934","-1.136"
"2015/12/18 08:39:34","6","-0.26","9.729","4355184","139.892314","patrol02","37.500355","1450395601819","20151218_083934","-0.659"
"2015/12/18 08:39:34","6","-0.164","9.822","4355185","139.892315","patrol02","37.500357","1450395601920","20151218_083934","-0.325"
"2015/12/18 08:39:34","6","-0.032","9.761","4355186","139.892316","patrol02","37.500359","1450395602021","20151218_083934","-0.174"
"2015/12/18 08:39:34","6","0.043","9.671","4355187","139.892318","patrol02","37.500361","1450395602121","20151218_083934","-0.172"
"2015/12/18 08:39:34","6","0.064","9.583","4355188","139.892318","patrol02","37.500364","1450395602222","20151218_083934","-0.312"
"2015/12/18 08:39:34","6","0.074","9.589","4355189","139.892319","patrol02","37.500367","1450395602318","20151218_083934","-0.449"
"2015/12/18 08:39:34","6","0.08","9.683","4355190","139.89232","patrol02","37.50037","1450395602418","20151218_083934","-0.498"
"2015/12/18 08:39:34","6","0.136","9.677","4355191","139.892321","patrol02","37.500373","1450395602519","20151218_083934","-0.465"
"2015/12/18 08:39:34","6","0.177","9.631","4355192","139.892321","patrol02","37.500376","1450395602620","20151218_083934","-0.376"
"2015/12/18 08:39:34","6","0.234","9.607","4355193","139.892322","patrol02","37.500379","1450395602721","20151218_083934","-0.329"
"2015/12/18 08:39:34","6","0.182","9.706","4355194","139.892323","patrol02","37.500382","1450395602821","20151218_083934","-0.231"
"2015/12/18 08:39:34","6","0.204","9.754","4355195","139.892323","patrol02","37.500385","1450395602922","20151218_083934","-0.049"
"2015/12/18 08:39:34","6","0.182","9.783","4355196","139.892324","patrol02","37.500388","1450395603018","20151218_083934","0.041"
"2015/12/18 08:39:34","6","0.195","9.82","4355197","139.892325","patrol02","37.500391","1450395603118","20151218_083934","0.161"
"2015/12/18 08:39:34","5","0.252","9.739","4355198","139.892325","patrol02","37.500393","1450395603219","20151218_083934","0.196"
"2015/12/18 08:39:34","5","0.297","9.666","4355199","139.892325","patrol02","37.500396","1450395603320","20151218_083934","0.178"
"2015/12/18 08:39:34","5","0.242","9.607","4355200","139.892325","patrol02","37.500398","1450395603421","20151218_083934","0.091"
"2015/12/18 08:39:34","5","0.226","9.558","4355201","139.892325","patrol02","37.500401","1450395603521","20151218_083934","0.059"
"2015/12/18 08:39:34","5","0.16","9.546","4355202","139.892325","patrol02","37.500403","1450395603622","20151218_083934","0.069"
"2015/12/18 08:39:34","5","0.078","9.592","4355203","139.892326","patrol02","37.500405","1450395603718","20151218_083934","0.222"
"2015/12/18 08:39:34","5","0.1","9.741","4355204","139.892326","patrol02","37.500408","1450395603818","20151218_083934","0.289"
"2015/12/18 08:39:34","5","0.021","9.821","4355205","139.892326","patrol02","37.50041","1450395603919","20151218_083934","0.175"
"2015/12/18 08:39:34","5","-0.111","9.754","4355206","139.892326","patrol02","37.500413","1450395604020","20151218_083934","0.074"
"2015/12/18 08:39:34","5","-0.383","9.565","4355207","139.892326","patrol02","37.500415","1450395604120","20151218_083934","0.13"
"2015/12/18 08:39:34","5","-0.464","9.672","4355208","139.892326","patrol02","37.500418","1450395604221","20151218_083934","0.239"
"2015/12/18 08:39:34","5","-0.484","9.882","4355209","139.892326","patrol02","37.50042","1450395604322","20151218_083934","0.203"
"2015/12/18 08:39:34","5","-0.511","9.856","4355210","139.892326","patrol02","37.500423","1450395604418","20151218_083934","0.062"
"2015/12/18 08:39:34","5","-0.498","9.719","4355211","139.892326","patrol02","37.500425","1450395604518","20151218_083934","-0.028"
"2015/12/18 08:39:34","5","-0.604","9.487","4355212","139.892326","patrol02","37.500428","1450395604619","20151218_083934","-0.048"
"2015/12/18 08:39:34","5","-0.688","9.551","4355213","139.892327","patrol02","37.500431","1450395604720","20151218_083934","0.138"
"2015/12/18 08:39:34","5","-0.733","9.613","4355214","139.892327","patrol02","37.500433","1450395604820","20151218_083934","0.272"
"2015/12/18 08:39:34","5","-0.94","9.741","4355215","139.892327","patrol02","37.500436","1450395604921","20151218_083934","0.18"
"2015/12/18 08:39:34","5","-0.974","9.923","4355216","139.892327","patrol02","37.500438","1450395605022","20151218_083934","-0.025"
"2015/12/18 08:39:34","5","-0.934","9.878","4355217","139.892327","patrol02","37.500441","1450395605122","20151218_083934","-0.157"
"2015/12/18 08:39:34","4","-0.875","9.709","4355218","139.892327","patrol02","37.500443","1450395605218","20151218_083934","-0.182"
"2015/12/18 08:39:34","4","-0.811","9.607","4355219","139.892328","patrol02","37.500446","1450395605319","20151218_083934","-0.15"
"2015/12/18 08:39:34","4","-0.754","9.55","4355220","139.892328","patrol02","37.500448","1450395605420","20151218_083934","-0.167"
"2015/12/18 08:39:34","4","-0.799","9.565","4355221","139.892328","patrol02","37.50045","1450395605520","20151218_083934","-0.203"
"2015/12/18 08:39:34","4","-0.821","9.645","4355222","139.892329","patrol02","37.500453","1450395605621","20151218_083934","-0.247"
"2015/12/18 08:39:34","4","-0.791","9.704","4355223","139.892329","patrol02","37.500455","1450395605722","20151218_083934","-0.315"
"2015/12/18 08:39:34","4","-0.729","9.737","4355224","139.89233","patrol02","37.500457","1450395605822","20151218_083934","-0.399"
"2015/12/18 08:39:34","4","-0.634","9.71","4355225","139.89233","patrol02","37.500459","1450395605918","20151218_083934","-0.429"
"2015/12/18 08:39:34","4","-0.636","9.591","4355226","139.89233","patrol02","37.500462","1450395606019","20151218_083934","-0.393"
"2015/12/18 08:39:34","4","-0.715","9.566","4355227","139.892331","patrol02","37.500464","1450395606120","20151218_083934","-0.356"
"2015/12/18 08:39:34","4","-0.781","9.65","4355228","139.892331","patrol02","37.500466","1450395606220","20151218_083934","-0.275"
"2015/12/18 08:39:34","4","-0.778","9.722","4355229","139.892332","patrol02","37.500468","1450395606321","20151218_083934","-0.168"
"2015/12/18 08:39:34","4","-0.649","9.793","4355230","139.892332","patrol02","37.500469","1450395606422","20151218_083934","-0.128"
"2015/12/18 08:39:34","4","-0.619","9.719","4355231","139.892333","patrol02","37.500471","1450395606522","20151218_083934","-0.111"
"2015/12/18 08:39:34","4","-0.585","9.631","4355232","139.892333","patrol02","37.500473","1450395606618","20151218_083934","-0.164"
"2015/12/18 08:39:34","4","-0.48","9.568","4355233","139.892334","patrol02","37.500474","1450395606719","20151218_083934","-0.235"
"2015/12/18 08:39:34","4","-0.432","9.586","4355234","139.892334","patrol02","37.500476","1450395606819","20151218_083934","-0.258"
"2015/12/18 08:39:34","4","-0.46","9.665","4355235","139.892335","patrol02","37.500478","1450395606920","20151218_083934","-0.198"
"2015/12/18 08:39:34","4","-0.371","9.729","4355236","139.892335","patrol02","37.50048","1450395607021","20151218_083934","-0.133"
"2015/12/18 08:39:34","4","-0.284","9.789","4355237","139.892336","patrol02","37.500481","1450395607122","20151218_083934","-0.125"
"2015/12/18 08:39:34","4","-0.33","9.733","4355238","139.892336","patrol02","37.500482","1450395607222","20151218_083934","-0.114"
"2015/12/18 08:39:34","4","-0.317","9.701","4355239","139.892336","patrol02","37.500482","1450395607318","20151218_083934","-0.138"
"2015/12/18 08:39:34","4","-0.249","9.661","4355240","139.892337","patrol02","37.500482","1450395607419","20151218_083934","-0.151"
"2015/12/18 08:39:34","4","-0.267","9.637","4355241","139.892337","patrol02","37.500482","1450395607519","20151218_083934","-0.168"
"2015/12/18 08:39:34","4","-0.298","9.616","4355242","139.892337","patrol02","37.500482","1450395607620","20151218_083934","-0.164"
"2015/12/18 08:39:34","4","-0.232","9.682","4355243","139.892337","patrol02","37.500483","1450395607721","20151218_083934","-0.17"
"2015/12/18 08:39:34","4","-0.261","9.713","4355244","139.892337","patrol02","37.500483","1450395607822","20151218_083934","-0.153"
"2015/12/18 08:39:34","4","-0.281","9.686","4355245","139.892338","patrol02","37.500483","1450395607922","20151218_083934","-0.138"
"2015/12/18 08:39:34","4","-0.241","9.699","4355246","139.892338","patrol02","37.500483","1450395608018","20151218_083934","-0.143"
"2015/12/18 08:39:34","4","-0.271","9.659","4355247","139.892338","patrol02","37.500483","1450395608119","20151218_083934","-0.146"
"2015/12/18 08:39:34","5","-0.311","9.622","4355248","139.892338","patrol02","37.500482","1450395608219","20151218_083934","-0.149"
"2015/12/18 08:39:34","5","-0.272","9.618","4355249","139.892339","patrol02","37.500481","1450395608320","20151218_083934","-0.144"
"2015/12/18 08:39:34","5","-0.135","9.749","4355250","139.892339","patrol02","37.500479","1450395608421","20151218_083934","-0.146"
"2015/12/18 08:39:34","5","0.028","9.757","4355251","139.89234","patrol02","37.500478","1450395608521","20151218_083934","-0.141"
"2015/12/18 08:39:34","5","0.136","9.692","4355252","139.89234","patrol02","37.500476","1450395608622","20151218_083934","-0.153"
"2015/12/18 08:39:34","5","0.175","9.595","4355253","139.892341","patrol02","37.500475","1450395608718","20151218_083934","-0.138"
"2015/12/18 08:39:34","5","0.14","9.588","4355254","139.892341","patrol02","37.500473","1450395608818","20151218_083934","-0.108"
"2015/12/18 08:39:34","5","0.145","9.631","4355255","139.892342","patrol02","37.500472","1450395608919","20151218_083934","-0.094"
"2015/12/18 08:39:34","5","0.136","9.675","4355256","139.892342","patrol02","37.50047","1450395609020","20151218_083934","-0.107"
"2015/12/18 08:39:34","5","0.071","9.697","4355257","139.892343","patrol02","37.500469","1450395609121","20151218_083934","-0.133"
"2015/12/18 08:39:34","5","0.151","9.711","4355258","139.892343","patrol02","37.500468","1450395609221","20151218_083934","-0.148"
"2015/12/18 08:39:34","5","0.162","9.689","4355259","139.892343","patrol02","37.500467","1450395609322","20151218_083934","-0.144"
"2015/12/18 08:39:34","5","0.145","9.658","4355260","139.892344","patrol02","37.500466","1450395609418","20151218_083934","-0.152"
"2015/12/18 08:39:34","5","0.199","9.688","4355261","139.892344","patrol02","37.500466","1450395609518","20151218_083934","-0.16"
"2015/12/18 08:39:34","5","0.118","9.68","4355262","139.892344","patrol02","37.500465","1450395609619","20151218_083934","-0.127"
"2015/12/18 08:39:34","5","0.083","9.681","4355263","139.892345","patrol02","37.500464","1450395609720","20151218_083934","-0.109"
"2015/12/18 08:39:34","5","0.171","9.672","4355264","139.892345","patrol02","37.500463","1450395609821","20151218_083934","-0.11"
"2015/12/18 08:39:34","5","0.135","9.696","4355265","139.892345","patrol02","37.500463","1450395609921","20151218_083934","-0.124"
"2015/12/18 08:39:34","5","0.101","9.669","4355266","139.892346","patrol02","37.500462","1450395610022","20151218_083934","-0.124"
"2015/12/18 08:39:34","5","0.18","9.705","4355267","139.892346","patrol02","37.500461","1450395610118","20151218_083934","-0.147"
"2015/12/18 08:39:34","5","0.133","9.716","4355268","139.892346","patrol02","37.500461","1450395610223","20151218_083934","-0.143"
"2015/12/18 08:39:34","5","0.143","9.718","4355269","139.892346","patrol02","37.50046","1450395610319","20151218_083934","-0.141"
"2015/12/18 08:39:34","5","0.186","9.693","4355270","139.892347","patrol02","37.50046","1450395610418","20151218_083934","-0.132"
"2015/12/18 08:39:34","5","0.098","9.681","4355271","139.892347","patrol02","37.500459","1450395610520","20151218_083934","-0.115"
"2015/12/18 08:39:34","5","0.12","9.665","4355272","139.892347","patrol02","37.500459","1450395610620","20151218_083934","-0.113"
"2015/12/18 08:39:34","5","0.176","9.659","4355273","139.892348","patrol02","37.500458","1450395610722","20151218_083934","-0.126"
"2015/12/18 08:39:34","5","0.098","9.674","4355274","139.892348","patrol02","37.500458","1450395610818","20151218_083934","-0.125"
"2015/12/18 08:39:34","5","0.103","9.675","4355275","139.892348","patrol02","37.500457","1450395610918","20151218_083934","-0.121"
"2015/12/18 08:39:34","5","0.179","9.723","4355276","139.892349","patrol02","37.500457","1450395611019","20151218_083934","-0.133"
"2015/12/18 08:39:34","5","0.106","9.703","4355277","139.892349","patrol02","37.500456","1450395611120","20151218_083934","-0.127"
"2015/12/18 08:39:34","5","0.134","9.686","4355278","139.892349","patrol02","37.500456","1450395611220","20151218_083934","-0.13"
"2015/12/18 08:39:34","5","0.153","9.673","4355279","139.892349","patrol02","37.500455","1450395611321","20151218_083934","-0.125"
"2015/12/18 08:39:34","5","0.082","9.655","4355280","139.89235","patrol02","37.500455","1450395611422","20151218_083934","-0.127"
"2015/12/18 08:39:34","5","0.148","9.65","4355281","139.89235","patrol02","37.500454","1450395611522","20151218_083934","-0.124"
"2015/12/18 08:39:34","5","0.148","9.675","4355282","139.89235","patrol02","37.500454","1450395611618","20151218_083934","-0.123"
"2015/12/18 08:39:34","5","0.07","9.675","4355283","139.892351","patrol02","37.500453","1450395611719","20151218_083934","-0.115"
"2015/12/18 08:39:34","5","0.156","9.697","4355284","139.892351","patrol02","37.500453","1450395611820","20151218_083934","-0.134"
"2015/12/18 08:39:34","5","0.159","9.693","4355285","139.892351","patrol02","37.500452","1450395611920","20151218_083934","-0.129"
"2015/12/18 08:39:34","5","0.12","9.68","4355286","139.892352","patrol02","37.500452","1450395612021","20151218_083934","-0.131"
"2015/12/18 08:39:34","5","0.186","9.668","4355287","139.892352","patrol02","37.500451","1450395612122","20151218_083934","-0.131"
"2015/12/18 08:39:34","5","0.128","9.653","4355288","139.892352","patrol02","37.500451","1450395612222","20151218_083934","-0.122"
"2015/12/18 08:39:34","5","0.103","9.648","4355289","139.892352","patrol02","37.50045","1450395612318","20151218_083934","-0.115"
"2015/12/18 08:39:34","5","0.167","9.668","4355290","139.892353","patrol02","37.50045","1450395612419","20151218_083934","-0.114"
"2015/12/18 08:39:34","5","0.114","9.69","4355291","139.892353","patrol02","37.500449","1450395612520","20151218_083934","-0.126"
"2015/12/18 08:39:34","5","0.102","9.679","4355292","139.892353","patrol02","37.500449","1450395612620","20151218_083934","-0.128"
"2015/12/18 08:39:34","5","0.174","9.71","4355293","139.892354","patrol02","37.500448","1450395612721","20151218_083934","-0.14"
"2015/12/18 08:39:34","5","0.104","9.699","4355294","139.892354","patrol02","37.500448","1450395612822","20151218_083934","-0.128"
"2015/12/18 08:39:34","5","0.123","9.673","4355295","139.892354","patrol02","37.500447","1450395612922","20151218_083934","-0.126"
"2015/12/18 08:39:34","5","0.164","9.656","4355296","139.892355","patrol02","37.500447","1450395613018","20151218_083934","-0.121"
"2015/12/18 08:39:34","5","0.092","9.655","4355297","139.892355","patrol02","37.500446","1450395613119","20151218_083934","-0.114"
"2015/12/18 08:39:34","5","0.13","9.645","4355298","139.892355","patrol02","37.500446","1450395613219","20151218_083934","-0.113"
"2015/12/18 08:39:34","5","0.148","9.664","4355299","139.892355","patrol02","37.500445","1450395613320","20151218_083934","-0.118"
"2015/12/18 08:39:34","5","0.102","9.667","4355300","139.892356","patrol02","37.500445","1450395613421","20151218_083934","-0.121"
"2015/12/18 08:39:34","5","0.163","9.685","4355301","139.892356","patrol02","37.500445","1450395613522","20151218_083934","-0.129"
"2015/12/18 08:39:34","5","0.175","9.706","4355302","139.892356","patrol02","37.500444","1450395613622","20151218_083934","-0.135"
"2015/12/18 08:39:34","5","0.113","9.691","4355303","139.892356","patrol02","37.500444","1450395613718","20151218_083934","-0.129"
"2015/12/18 08:39:34","5","0.174","9.671","4355304","139.892356","patrol02","37.500443","1450395613819","20151218_083934","-0.129"
"2015/12/18 08:39:34","5","0.152","9.678","4355305","139.892357","patrol02","37.500443","1450395613919","20151218_083934","-0.122"
"2015/12/18 08:39:34","5","0.126","9.67","4355306","139.892357","patrol02","37.500443","1450395614020","20151218_083934","-0.116"
"2015/12/18 08:39:34","5","0.188","9.671","4355307","139.892357","patrol02","37.500442","1450395614121","20151218_083934","-0.116"
"2015/12/18 08:39:34","4","0.107","9.678","4355308","139.892357","patrol02","37.500442","1450395614221","20151218_083934","-0.115"
"2015/12/18 08:39:34","4","0.119","9.688","4355309","139.892357","patrol02","37.500442","1450395614322","20151218_083934","-0.128"
"2015/12/18 08:39:34","4","0.198","9.711","4355310","139.892358","patrol02","37.500441","1450395614418","20151218_083934","-0.145"
"2015/12/18 08:39:34","4","0.119","9.685","4355311","139.892358","patrol02","37.500441","1450395614519","20151218_083934","-0.129"
"2015/12/18 08:39:34","4","0.082","9.67","4355312","139.892358","patrol02","37.500441","1450395614619","20151218_083934","-0.124"
"2015/12/18 08:39:34","4","0.17","9.654","4355313","139.892359","patrol02","37.50044","1450395614720","20151218_083934","-0.118"
"2015/12/18 08:39:34","4","0.119","9.667","4355314","139.892359","patrol02","37.50044","1450395614821","20151218_083934","-0.117"
"2015/12/18 08:39:34","4","0.081","9.66","4355315","139.892359","patrol02","37.50044","1450395614921","20151218_083934","-0.119"
"2015/12/18 08:39:34","4","0.169","9.696","4355316","139.89236","patrol02","37.500439","1450395615022","20151218_083934","-0.133"
"2015/12/18 08:39:34","4","0.12","9.703","4355317","139.89236","patrol02","37.500439","1450395615118","20151218_083934","-0.132"
"2015/12/18 08:39:34","5","0.139","9.687","4355318","139.89236","patrol02","37.500439","1450395615219","20151218_083934","-0.131"
"2015/12/18 08:39:34","5","0.168","9.696","4355319","139.89236","patrol02","37.500439","1450395615319","20151218_083934","-0.132"
"2015/12/18 08:39:34","5","0.084","9.68","4355320","139.892361","patrol02","37.500439","1450395615420","20151218_083934","-0.118"
"2015/12/18 08:39:34","5","0.129","9.676","4355321","139.892361","patrol02","37.500439","1450395615521","20151218_083934","-0.113"
"2015/12/18 08:39:34","5","0.169","9.658","4355322","139.892361","patrol02","37.500439","1450395615621","20151218_083934","-0.113"
"2015/12/18 08:39:34","5","0.087","9.653","4355323","139.892362","patrol02","37.500438","1450395615722","20151218_083934","-0.115"
"2015/12/18 08:39:34","5","0.133","9.658","4355324","139.892362","patrol02","37.500438","1450395615818","20151218_083934","-0.116"
"2015/12/18 08:39:34","5","0.17","9.674","4355325","139.892362","patrol02","37.500438","1450395615918","20151218_083934","-0.121"
"2015/12/18 08:39:34","5","0.115","9.673","4355326","139.892363","patrol02","37.500438","1450395616019","20151218_083934","-0.121"
"2015/12/18 08:39:34","5","0.193","9.697","4355327","139.892363","patrol02","37.500438","1450395616120","20151218_083934","-0.136"
"2015/12/18 08:39:34","5","0.147","9.696","4355328","139.892363","patrol02","37.500438","1450395616220","20151218_083934","-0.13"
"2015/12/18 08:39:34","5","0.096","9.688","4355329","139.892363","patrol02","37.500438","1450395616321","20151218_083934","-0.118"
"2015/12/18 08:39:34","5","0.176","9.673","4355330","139.892364","patrol02","37.500438","1450395616422","20151218_083934","-0.113"
"2015/12/18 08:39:34","5","0.141","9.663","4355331","139.892364","patrol02","37.500438","1450395616518","20151218_083934","-0.111"
"2015/12/18 08:39:34","5","0.095","9.656","4355332","139.892364","patrol02","37.500438","1450395616618","20151218_083934","-0.109"
"2015/12/18 08:39:34","5","0.165","9.672","4355333","139.892365","patrol02","37.500437","1450395616719","20151218_083934","-0.114"
"2015/12/18 08:39:34","5","0.109","9.684","4355334","139.892365","patrol02","37.500437","1450395616820","20151218_083934","-0.116"
"2015/12/18 08:39:34","5","0.076","9.675","4355335","139.892365","patrol02","37.500437","1450395616920","20151218_083934","-0.114"
"2015/12/18 08:39:34","5","0.168","9.701","4355336","139.892366","patrol02","37.500437","1450395617021","20151218_083934","-0.132"
"2015/12/18 08:39:34","5","0.097","9.697","4355337","139.892366","patrol02","37.500437","1450395617122","20151218_083934","-0.127"
"2015/12/18 08:39:34","5","0.135","9.687","4355338","139.892366","patrol02","37.500437","1450395617218","20151218_083934","-0.13"
"2015/12/18 08:39:34","5","0.164","9.656","4355339","139.892366","patrol02","37.500437","1450395617318","20151218_083934","-0.117"
"2015/12/18 08:39:34","5","0.104","9.664","4355340","139.892366","patrol02","37.500437","1450395617419","20151218_083934","-0.114"
"2015/12/18 08:39:34","5","0.173","9.658","4355341","139.892366","patrol02","37.500437","1450395617520","20151218_083934","-0.113"
"2015/12/18 08:39:34","5","0.133","9.655","4355342","139.892366","patrol02","37.500437","1450395617620","20151218_083934","-0.109"
"2015/12/18 08:39:34","5","0.094","9.665","4355343","139.892367","patrol02","37.500436","1450395617721","20151218_083934","-0.109"
"2015/12/18 08:39:34","5","0.154","9.698","4355344","139.892367","patrol02","37.500436","1450395617822","20151218_083934","-0.124"
"2015/12/18 08:39:34","5","0.089","9.689","4355345","139.892367","patrol02","37.500436","1450395617922","20151218_083934","-0.121"
"2015/12/18 08:39:34","5","0.147","9.693","4355346","139.892367","patrol02","37.500436","1450395618018","20151218_083934","-0.131"
"2015/12/18 08:39:34","5","0.165","9.702","4355347","139.892367","patrol02","37.500436","1450395618119","20151218_083934","-0.13"
"2015/12/18 08:39:34","5","0.09","9.679","4355348","139.892367","patrol02","37.500436","1450395618220","20151218_083934","-0.121"
"2015/12/18 08:39:34","5","0.135","9.667","4355349","139.892367","patrol02","37.500436","1450395618320","20151218_083934","-0.118"
"2015/12/18 08:39:34","5","0.107","9.664","4355350","139.892367","patrol02","37.500436","1450395618421","20151218_083934","-0.116"
"2015/12/18 08:39:34","5","0.096","9.648","4355351","139.892367","patrol02","37.500436","1450395618522","20151218_083934","-0.111"
"2015/12/18 08:39:34","5","0.155","9.652","4355352","139.892367","patrol02","37.500436","1450395618622","20151218_083934","-0.113"
"2015/12/18 08:39:34","5","0.106","9.661","4355353","139.892367","patrol02","37.500435","1450395618718","20151218_083934","-0.108"
"2015/12/18 08:39:34","5","0.147","9.681","4355354","139.892367","patrol02","37.500435","1450395618819","20151218_083934","-0.112"
"2015/12/18 08:39:34","5","0.151","9.708","4355355","139.892367","patrol02","37.500435","1450395618920","20151218_083934","-0.13"
"2015/12/18 08:39:34","5","0.124","9.697","4355356","139.892367","patrol02","37.500435","1450395619020","20151218_083934","-0.134"
"2015/12/18 08:39:34","5","0.191","9.712","4355357","139.892367","patrol02","37.500435","1450395619121","20151218_083934","-0.149"
"2015/12/18 08:39:34","6","0.114","9.693","4355358","139.892367","patrol02","37.500435","1450395619222","20151218_083934","-0.134"
"2015/12/18 08:39:34","6","0.077","9.681","4355359","139.892367","patrol02","37.500435","1450395619322","20151218_083934","-0.128"
"2015/12/18 08:39:34","6","0.143","9.669","4355360","139.892367","patrol02","37.500435","1450395619418","20151218_083934","-0.112"
"2015/12/18 08:39:34","6","0.095","9.658","4355361","139.892367","patrol02","37.500435","1450395619519","20151218_083934","-0.109"
"2015/12/18 08:39:34","6","0.11","9.648","4355362","139.892367","patrol02","37.500435","1450395619619","20151218_083934","-0.114"
"2015/12/18 08:39:34","6","0.141","9.677","4355363","139.892367","patrol02","37.500434","1450395619720","20151218_083934","-0.121"
"2015/12/18 08:39:34","6","0.117","9.663","4355364","139.892367","patrol02","37.500434","1450395619821","20151218_083934","-0.121"
"2015/12/18 08:39:34","6","0.193","9.693","4355365","139.892367","patrol02","37.500434","1450395619922","20151218_083934","-0.133"
"2015/12/18 08:39:34","6","0.146","9.712","4355366","139.892367","patrol02","37.500434","1450395620022","20151218_083934","-0.129"
"2015/12/18 08:39:34","6","0.137","9.701","4355367","139.892367","patrol02","37.500434","1450395620118","20151218_083934","-0.134"
"2015/12/18 08:39:34","6","0.173","9.678","4355368","139.892367","patrol02","37.500434","1450395620219","20151218_083934","-0.126"
"2015/12/18 08:39:34","6","0.104","9.677","4355369","139.892367","patrol02","37.500434","1450395620319","20151218_083934","-0.122"
"2015/12/18 08:39:34","6","0.133","9.662","4355370","139.892367","patrol02","37.500434","1450395620420","20151218_083934","-0.115"
"2015/12/18 08:39:34","6","0.151","9.659","4355371","139.892367","patrol02","37.500434","1450395620521","20151218_083934","-0.118"
"2015/12/18 08:39:34","6","0.086","9.655","4355372","139.892367","patrol02","37.500434","1450395620621","20151218_083934","-0.116"
"2015/12/18 08:39:34","6","0.148","9.693","4355373","139.892367","patrol02","37.500433","1450395620722","20151218_083934","-0.128"
"2015/12/18 08:39:34","6","0.118","9.69","4355374","139.892367","patrol02","37.500433","1450395620818","20151218_083934","-0.13"
"2015/12/18 08:39:34","6","0.128","9.688","4355375","139.892367","patrol02","37.500433","1450395620919","20151218_083934","-0.132"
"2015/12/18 08:39:34","6","0.186","9.706","4355376","139.892367","patrol02","37.500433","1450395621019","20151218_083934","-0.137"
"2015/12/18 08:39:34","6","0.109","9.7","4355377","139.892367","patrol02","37.500433","1450395621120","20151218_083934","-0.133"
"2015/12/18 08:39:34","6","0.127","9.683","4355378","139.892367","patrol02","37.500433","1450395621221","20151218_083934","-0.127"
"2015/12/18 08:39:34","6","0.179","9.665","4355379","139.892367","patrol02","37.500433","1450395621321","20151218_083934","-0.115"
"2015/12/18 08:39:34","6","0.125","9.664","4355380","139.892367","patrol02","37.500433","1450395621422","20151218_083934","-0.106"
"2015/12/18 08:39:34","6","0.14","9.658","4355381","139.892367","patrol02","37.500433","1450395621518","20151218_083934","-0.11"
"2015/12/18 08:39:34","6","0.141","9.685","4355382","139.892367","patrol02","37.500433","1450395621618","20151218_083934","-0.128"
"2015/12/18 08:39:34","6","0.095","9.671","4355383","139.892367","patrol02","37.500432","1450395621719","20151218_083934","-0.125"
"2015/12/18 08:39:34","6","0.161","9.703","4355384","139.892367","patrol02","37.500432","1450395621820","20151218_083934","-0.13"
"2015/12/18 08:39:34","6","0.116","9.701","4355385","139.892367","patrol02","37.500432","1450395621921","20151218_083934","-0.123"
"2015/12/18 08:39:34","6","0.154","9.709","4355386","139.892367","patrol02","37.500432","1450395622021","20151218_083934","-0.133"
"2015/12/18 08:39:34","6","0.153","9.708","4355387","139.892367","patrol02","37.500432","1450395622122","20151218_083934","-0.135"
"2015/12/18 08:39:34","5","0.102","9.7","4355388","139.892367","patrol02","37.500432","1450395622218","20151218_083934","-0.137"
"2015/12/18 08:39:34","5","0.163","9.679","4355389","139.892367","patrol02","37.500432","1450395622318","20151218_083934","-0.13"
"2015/12/18 08:39:34","5","0.13","9.672","4355390","139.892367","patrol02","37.500432","1450395622419","20151218_083934","-0.125"
"2015/12/18 08:39:34","5","0.135","9.661","4355391","139.892367","patrol02","37.500432","1450395622520","20151218_083934","-0.113"
"2015/12/18 08:39:34","5","0.149","9.668","4355392","139.892367","patrol02","37.500432","1450395622621","20151218_083934","-0.116"
"2015/12/18 08:39:34","5","0.087","9.648","4355393","139.892367","patrol02","37.500432","1450395622721","20151218_083934","-0.121"
"2015/12/18 08:39:34","5","0.162","9.681","4355394","139.892367","patrol02","37.500432","1450395622822","20151218_083934","-0.132"
"2015/12/18 08:39:34","5","0.138","9.7","4355395","139.892367","patrol02","37.500432","1450395622918","20151218_083934","-0.122"
"2015/12/18 08:39:34","5","0.134","9.695","4355396","139.892367","patrol02","37.500432","1450395623018","20151218_083934","-0.121"
"2015/12/18 08:39:34","5","0.175","9.7","4355397","139.892367","patrol02","37.500432","1450395623119","20151218_083934","-0.125"
"2015/12/18 08:39:34","6","0.101","9.702","4355398","139.892367","patrol02","37.500432","1450395623220","20151218_083934","-0.129"
"2015/12/18 08:39:34","6","0.14","9.687","4355399","139.892367","patrol02","37.500432","1450395623320","20151218_083934","-0.13"
"2015/12/18 08:39:34","6","0.161","9.684","4355400","139.892367","patrol02","37.500432","1450395623421","20151218_083934","-0.129"
"2015/12/18 08:39:34","6","0.105","9.654","4355401","139.892367","patrol02","37.500432","1450395623522","20151218_083934","-0.119"
"2015/12/18 08:39:34","6","0.146","9.657","4355402","139.892367","patrol02","37.500432","1450395623623","20151218_083934","-0.117"
"2015/12/18 08:39:34","6","0.107","9.657","4355403","139.892367","patrol02","37.500432","1450395623718","20151218_083934","-0.111"
"2015/12/18 08:39:34","6","0.11","9.643","4355404","139.892367","patrol02","37.500432","1450395623819","20151218_083934","-0.114"
"2015/12/18 08:39:34","6","0.157","9.671","4355405","139.892367","patrol02","37.500432","1450395623920","20151218_083934","-0.128"
"2015/12/18 08:39:34","6","0.123","9.675","4355406","139.892367","patrol02","37.500432","1450395624020","20151218_083934","-0.135"
"2015/12/18 08:39:34","6","0.192","9.694","4355407","139.892367","patrol02","37.500432","1450395624121","20151218_083934","-0.143"
"2015/12/18 08:39:34","5","0.12","9.696","4355408","139.892367","patrol02","37.500432","1450395624222","20151218_083934","-0.131"
"2015/12/18 08:39:34","5","0.108","9.691","4355409","139.892367","patrol02","37.500432","1450395624323","20151218_083934","-0.133"
"2015/12/18 08:39:34","5","0.161","9.69","4355410","139.892367","patrol02","37.500432","1450395624418","20151218_083934","-0.135"
"2015/12/18 08:39:34","5","0.117","9.688","4355411","139.892367","patrol02","37.500432","1450395624524","20151218_083934","-0.13"
"2015/12/18 08:39:34","5","0.12","9.66","4355412","139.892367","patrol02","37.500432","1450395624620","20151218_083934","-0.119"
"2015/12/18 08:39:34","5","0.168","9.654","4355413","139.892367","patrol02","37.500432","1450395624719","20151218_083934","-0.117"
"2015/12/18 08:39:34","5","0.12","9.636","4355414","139.892367","patrol02","37.500432","1450395624821","20151218_083934","-0.113"
"2015/12/18 08:39:34","5","0.145","9.662","4355415","139.892367","patrol02","37.500432","1450395624920","20151218_083934","-0.12"
"2015/12/18 08:39:34","5","0.115","9.66","4355416","139.892367","patrol02","37.500432","1450395625022","20151218_083934","-0.123"
"2015/12/18 08:39:34","5","0.121","9.666","4355417","139.892367","patrol02","37.500432","1450395625118","20151218_083934","-0.129"
"2015/12/18 08:39:34","6","0.143","9.678","4355418","139.892367","patrol02","37.500432","1450395625219","20151218_083934","-0.129"
"2015/12/18 08:39:34","6","0.103","9.695","4355419","139.892367","patrol02","37.500432","1450395625320","20151218_083934","-0.133"
"2015/12/18 08:39:34","6","0.156","9.704","4355420","139.892367","patrol02","37.500432","1450395625420","20151218_083934","-0.138"
"2015/12/18 08:39:34","6","0.132","9.697","4355421","139.892367","patrol02","37.500432","1450395625521","20151218_083934","-0.134"
"2015/12/18 08:39:34","6","0.108","9.701","4355422","139.892367","patrol02","37.500432","1450395625622","20151218_083934","-0.134"
"2015/12/18 08:39:34","6","0.16","9.678","4355423","139.892367","patrol02","37.500432","1450395625722","20151218_083934","-0.126"
"2015/12/18 08:39:34","6","0.125","9.662","4355424","139.892367","patrol02","37.500432","1450395625818","20151218_083934","-0.12"
"2015/12/18 08:39:34","6","0.129","9.651","4355425","139.892367","patrol02","37.500432","1450395625919","20151218_083934","-0.118"
"2015/12/18 08:39:34","6","0.14","9.66","4355426","139.892367","patrol02","37.500432","1450395626019","20151218_083934","-0.119"
"2015/12/18 08:39:34","6","0.095","9.65","4355427","139.892367","patrol02","37.500432","1450395626120","20151218_083934","-0.117"
"2015/12/18 08:39:34","6","0.15","9.676","4355428","139.892367","patrol02","37.500432","1450395626221","20151218_083934","-0.129"
"2015/12/18 08:39:34","6","0.136","9.688","4355429","139.892367","patrol02","37.500432","1450395626322","20151218_083934","-0.132"
"2015/12/18 08:39:34","6","0.143","9.69","4355430","139.892367","patrol02","37.500432","1450395626422","20151218_083934","-0.137"
"2015/12/18 08:39:34","6","0.178","9.707","4355431","139.892367","patrol02","37.500432","1450395626518","20151218_083934","-0.138"
"2015/12/18 08:39:34","6","0.114","9.713","4355432","139.892367","patrol02","37.500432","1450395626619","20151218_083934","-0.131"
"2015/12/18 08:39:34","6","0.159","9.702","4355433","139.892367","patrol02","37.500431","1450395626719","20151218_083934","-0.126"
"2015/12/18 08:39:34","6","0.155","9.7","4355434","139.892367","patrol02","37.500431","1450395626820","20151218_083934","-0.129"
"2015/12/18 08:39:34","6","0.124","9.671","4355435","139.892367","patrol02","37.500431","1450395626921","20151218_083934","-0.121"
"2015/12/18 08:39:34","6","0.171","9.668","4355436","139.892367","patrol02","37.500431","1450395627021","20151218_083934","-0.118"
"2015/12/18 08:39:34","6","0.097","9.64","4355437","139.892367","patrol02","37.500431","1450395627122","20151218_083934","-0.115"
"2015/12/18 08:39:34","6","0.106","9.63","4355438","139.892367","patrol02","37.500431","1450395627218","20151218_083934","-0.117"
"2015/12/18 08:39:34","6","0.112","9.647","4355439","139.892367","patrol02","37.500431","1450395627319","20151218_083934","-0.117"
"2015/12/18 08:39:34","6","0.114","9.656","4355440","139.892367","patrol02","37.500431","1450395627419","20151218_083934","-0.119"
"2015/12/18 08:39:34","6","0.17","9.691","4355441","139.892367","patrol02","37.500431","1450395627520","20151218_083934","-0.133"
"2015/12/18 08:39:34","6","0.114","9.704","4355442","139.892367","patrol02","37.500431","1450395627618","20151218_083934","-0.136"
"2015/12/18 08:39:34","6","0.165","9.715","4355443","139.892367","patrol02","37.500431","1450395627718","20151218_083934","-0.143"
"2015/12/18 08:39:34","6","0.168","9.709","4355444","139.892367","patrol02","37.500431","1450395627819","20151218_083934","-0.135"
"2015/12/18 08:39:34","6","0.116","9.707","4355445","139.892367","patrol02","37.500431","1450395627920","20151218_083934","-0.134"
"2015/12/18 08:39:34","6","0.176","9.685","4355446","139.892367","patrol02","37.500431","1450395628020","20151218_083934","-0.125"
"2015/12/18 08:39:34","6","0.125","9.666","4355447","139.892367","patrol02","37.500431","1450395628121","20151218_083934","-0.12"
"2015/12/18 08:39:34","7","0.102","9.638","4355448","139.892367","patrol02","37.500431","1450395628222","20151218_083934","-0.111"
"2015/12/18 08:39:34","7","0.143","9.648","4355449","139.892367","patrol02","37.500431","1450395628323","20151218_083934","-0.112"
"2015/12/18 08:39:34","7","0.09","9.634","4355450","139.892367","patrol02","37.500431","1450395628418","20151218_083934","-0.111"
"2015/12/18 08:39:34","7","0.144","9.662","4355451","139.892367","patrol02","37.500431","1450395628522","20151218_083934","-0.121"
"2015/12/18 08:39:34","7","0.134","9.672","4355452","139.892367","patrol02","37.500431","1450395628618","20151218_083934","-0.118"
"2015/12/18 08:39:34","7","0.147","9.683","4355453","139.892367","patrol02","37.500431","1450395628718","20151218_083934","-0.13"
"2015/12/18 08:39:34","7","0.184","9.708","4355454","139.892367","patrol02","37.500431","1450395628819","20151218_083934","-0.136"
"2015/12/18 08:39:34","7","0.115","9.704","4355455","139.892367","patrol02","37.500431","1450395628920","20151218_083934","-0.134"
"2015/12/18 08:39:34","7","0.158","9.703","4355456","139.892367","patrol02","37.500431","1450395629021","20151218_083934","-0.136"
"2015/12/18 08:39:34","7","0.136","9.699","4355457","139.892367","patrol02","37.500431","1450395629121","20151218_083934","-0.132"
"2015/12/18 08:39:34","8","0.101","9.659","4355458","139.892367","patrol02","37.500431","1450395629222","20151218_083934","-0.119"
"2015/12/18 08:39:34","8","0.159","9.66","4355459","139.892367","patrol02","37.500431","1450395629318","20151218_083934","-0.114"
"2015/12/18 08:39:34","8","0.105","9.648","4355460","139.892367","patrol02","37.500431","1450395629420","20151218_083934","-0.11"
"2015/12/18 08:39:34","8","0.123","9.647","4355461","139.892367","patrol02","37.500431","1450395629521","20151218_083934","-0.11"
"2015/12/18 08:39:34","8","0.121","9.654","4355462","139.892367","patrol02","37.500431","1450395629622","20151218_083934","-0.109"
"2015/12/18 08:39:34","8","0.081","9.636","4355463","139.892367","patrol02","37.500431","1450395629722","20151218_083934","-0.112"
"2015/12/18 08:39:34","8","0.159","9.675","4355464","139.892367","patrol02","37.500431","1450395629818","20151218_083934","-0.131"
"2015/12/18 08:39:34","8","0.122","9.69","4355465","139.892367","patrol02","37.500431","1450395629919","20151218_083934","-0.133"
"2015/12/18 08:39:34","8","0.162","9.705","4355466","139.892367","patrol02","37.500431","1450395630019","20151218_083934","-0.144"
"2015/12/18 08:39:34","8","0.161","9.715","4355467","139.892367","patrol02","37.500431","1450395630120","20151218_083934","-0.137"
"2015/12/18 08:39:34","8","0.106","9.699","4355468","139.892367","patrol02","37.500431","1450395630221","20151218_083934","-0.132"
"2015/12/18 08:39:34","8","0.155","9.697","4355469","139.892367","patrol02","37.500431","1450395630322","20151218_083934","-0.135"
"2015/12/18 08:39:34","8","0.104","9.702","4355470","139.892367","patrol02","37.500431","1450395630422","20151218_083934","-0.134"
"2015/12/18 08:39:34","8","0.128","9.681","4355471","139.892367","patrol02","37.500431","1450395630518","20151218_083934","-0.121"
"2015/12/18 08:39:34","8","0.167","9.662","4355472","139.892367","patrol02","37.500431","1450395630619","20151218_083934","-0.118"
"2015/12/18 08:39:34","8","0.107","9.633","4355473","139.892367","patrol02","37.500431","1450395630722","20151218_083934","-0.114"
"2015/12/18 08:39:34","8","0.144","9.659","4355474","139.892367","patrol02","37.500431","1450395630818","20151218_083934","-0.12"
"2015/12/18 08:39:34","8","0.105","9.656","4355475","139.892367","patrol02","37.500431","1450395630921","20151218_083934","-0.119"
"2015/12/18 08:39:34","8","0.144","9.675","4355476","139.892367","patrol02","37.500431","1450395631022","20151218_083934","-0.128"
"2015/12/18 08:39:34","8","0.158","9.679","4355477","139.892367","patrol02","37.500431","1450395631122","20151218_083934","-0.131"
"2015/12/18 08:39:34","7","0.116","9.667","4355478","139.892367","patrol02","37.500431","1450395631218","20151218_083934","-0.131"
"2015/12/18 08:39:34","7","0.182","9.692","4355479","139.892367","patrol02","37.500431","1450395631319","20151218_083934","-0.132"
"2015/12/18 08:39:34","7","0.118","9.699","4355480","139.892367","patrol02","37.500431","1450395631419","20151218_083934","-0.131"
"2015/12/18 08:39:34","7","0.159","9.694","4355481","139.892367","patrol02","37.500431","1450395631520","20151218_083934","-0.133"
"2015/12/18 08:39:34","7","0.157","9.7","4355482","139.892367","patrol02","37.500431","1450395631621","20151218_083934","-0.13"
"2015/12/18 08:39:34","7","0.128","9.691","4355483","139.892366","patrol02","37.500431","1450395631722","20151218_083934","-0.128"
"2015/12/18 08:39:34","7","0.165","9.677","4355484","139.892366","patrol02","37.500431","1450395631822","20151218_083934","-0.126"
"2015/12/18 08:39:34","7","0.098","9.643","4355485","139.892366","patrol02","37.500431","1450395631918","20151218_083934","-0.118"
"2015/12/18 08:39:34","7","0.135","9.655","4355486","139.892366","patrol02","37.500431","1450395632019","20151218_083934","-0.116"
"2015/12/18 08:39:34","7","0.107","9.654","4355487","139.892366","patrol02","37.500431","1450395632119","20151218_083934","-0.117"
"2015/12/18 08:39:34","7","0.119","9.654","4355488","139.892366","patrol02","37.500431","1450395632220","20151218_083934","-0.121"
"2015/12/18 08:39:34","7","0.145","9.674","4355489","139.892366","patrol02","37.500431","1450395632321","20151218_083934","-0.124"
"2015/12/18 08:39:34","7","0.132","9.683","4355490","139.892366","patrol02","37.500431","1450395632421","20151218_083934","-0.133"
"2015/12/18 08:39:34","7","0.184","9.711","4355491","139.892366","patrol02","37.500431","1450395632522","20151218_083934","-0.138"
"2015/12/18 08:39:34","7","0.118","9.735","4355492","139.892366","patrol02","37.500431","1450395632618","20151218_083934","-0.139"
"2015/12/18 08:39:34","7","0.152","9.727","4355493","139.892366","patrol02","37.500431","1450395632718","20151218_083934","-0.142"
"2015/12/18 08:39:34","7","0.151","9.704","4355494","139.892366","patrol02","37.500431","1450395632819","20151218_083934","-0.131"
"2015/12/18 08:39:34","7","0.109","9.68","4355495","139.892366","patrol02","37.500431","1450395632920","20151218_083934","-0.124"
"2015/12/18 08:39:34","7","0.166","9.675","4355496","139.892366","patrol02","37.500431","1450395633021","20151218_083934","-0.127"
"2015/12/18 08:39:34","7","0.104","9.65","4355497","139.892366","patrol02","37.500431","1450395633121","20151218_083934","-0.12"
"2015/12/18 08:39:34","8","0.136","9.647","4355498","139.892366","patrol02","37.500431","1450395633222","20151218_083934","-0.113"
"2015/12/18 08:39:34","8","0.127","9.648","4355499","139.892366","patrol02","37.500431","1450395633318","20151218_083934","-0.118"
"2015/12/18 08:39:34","8","0.11","9.643","4355500","139.892366","patrol02","37.500431","1450395633418","20151218_083934","-0.119"
"2015/12/18 08:39:34","8","0.159","9.674","4355501","139.892366","patrol02","37.500431","1450395633519","20151218_083934","-0.128"
"2015/12/18 08:39:34","8","0.126","9.684","4355502","139.892366","patrol02","37.500431","1450395633620","20151218_083934","-0.131"
"2015/12/18 08:39:34","8","0.182","9.706","4355503","139.892366","patrol02","37.500431","1450395633721","20151218_083934","-0.14"
"2015/12/18 08:39:34","8","0.14","9.708","4355504","139.892366","patrol02","37.500431","1450395633821","20151218_083934","-0.136"
"2015/12/18 08:39:34","8","0.138","9.707","4355505","139.892366","patrol02","37.500431","1450395633922","20151218_083934","-0.135"
"2015/12/18 08:39:34","8","0.168","9.698","4355506","139.892366","patrol02","37.500431","1450395634018","20151218_083934","-0.132"
"2015/12/18 08:39:34","8","0.113","9.707","4355507","139.892366","patrol02","37.500431","1450395634118","20151218_083934","-0.131"
"2015/12/18 08:39:34","8","0.162","9.689","4355508","139.892366","patrol02","37.500431","1450395634219","20151218_083934","-0.129"
"2015/12/18 08:39:34","8","0.103","9.673","4355509","139.892366","patrol02","37.500431","1450395634320","20151218_083934","-0.122"
"2015/12/18 08:39:34","8","0.108","9.661","4355510","139.892366","patrol02","37.500431","1450395634420","20151218_083934","-0.114"
"2015/12/18 08:39:34","8","0.124","9.667","4355511","139.892366","patrol02","37.500431","1450395634521","20151218_083934","-0.116"
"2015/12/18 08:39:34","8","0.112","9.661","4355512","139.892366","patrol02","37.500431","1450395634622","20151218_083934","-0.125"
"2015/12/18 08:39:34","8","0.175","9.7","4355513","139.892366","patrol02","37.500432","1450395634718","20151218_083934","-0.14"
"2015/12/18 08:39:34","8","0.136","9.688","4355514","139.892366","patrol02","37.500432","1450395634818","20151218_083934","-0.14"
"2015/12/18 08:39:34","8","0.192","9.722","4355515","139.892366","patrol02","37.500432","1450395634919","20151218_083934","-0.148"
"2015/12/18 08:39:34","8","0.161","9.725","4355516","139.892366","patrol02","37.500432","1450395635020","20151218_083934","-0.146"
"2015/12/18 08:39:34","8","0.158","9.718","4355517","139.892366","patrol02","37.500432","1450395635120","20151218_083934","-0.148"
"2015/12/18 08:39:34","8","0.182","9.704","4355518","139.892366","patrol02","37.500432","1450395635221","20151218_083934","-0.142"
"2015/12/18 08:39:34","8","0.115","9.711","4355519","139.892366","patrol02","37.500432","1450395635322","20151218_083934","-0.139"
"2015/12/18 08:39:34","8","0.16","9.684","4355520","139.892366","patrol02","37.500432","1450395635418","20151218_083934","-0.131"
"2015/12/18 08:39:34","8","0.137","9.671","4355521","139.892366","patrol02","37.500432","1450395635518","20151218_083934","-0.126"
"2015/12/18 08:39:34","8","0.115","9.656","4355522","139.892366","patrol02","37.500432","1450395635619","20151218_083934","-0.121"
"2015/12/18 08:39:34","8","0.135","9.664","4355523","139.892366","patrol02","37.500432","1450395635720","20151218_083934","-0.126"
"2015/12/18 08:39:34","8","0.084","9.635","4355524","139.892366","patrol02","37.500432","1450395635820","20151218_083934","-0.12"
"2015/12/18 08:39:34","8","0.135","9.665","4355525","139.892366","patrol02","37.500432","1450395635921","20151218_083934","-0.125"
"2015/12/18 08:39:34","8","0.096","9.638","4355526","139.892366","patrol02","37.500432","1450395636022","20151218_083934","-0.12"
"2015/12/18 08:39:34","8","0.148","9.651","4355527","139.892366","patrol02","37.500432","1450395636122","20151218_083934","-0.129"
"2015/12/18 08:39:34","8","0.148","9.669","4355528","139.892366","patrol02","37.500432","1450395636218","20151218_083934","-0.132"
"2015/12/18 08:39:34","8","0.142","9.694","4355529","139.892366","patrol02","37.500432","1450395636319","20151218_083934","-0.135"
"2015/12/18 08:39:34","8","0.181","9.713","4355530","139.892366","patrol02","37.500432","1450395636420","20151218_083934","-0.142"
"2015/12/18 08:39:34","8","0.13","9.727","4355531","139.892366","patrol02","37.500432","1450395636520","20151218_083934","-0.148"
"2015/12/18 08:39:34","8","0.177","9.711","4355532","139.892366","patrol02","37.500432","1450395636621","20151218_083934","-0.152"
"2015/12/18 08:39:34","8","0.131","9.721","4355533","139.892365","patrol02","37.500431","1450395636722","20151218_083934","-0.148"
"2015/12/18 08:39:34","8","0.161","9.711","4355534","139.892365","patrol02","37.500431","1450395636822","20151218_083934","-0.145"
"2015/12/18 08:39:34","8","0.162","9.703","4355535","139.892365","patrol02","37.500431","1450395636918","20151218_083934","-0.139"
"2015/12/18 08:39:34","8","0.107","9.689","4355536","139.892365","patrol02","37.500431","1450395637019","20151218_083934","-0.13"
"2015/12/18 08:39:34","8","0.138","9.649","4355537","139.892365","patrol02","37.500431","1450395637119","20151218_083934","-0.118"
"2015/12/18 08:39:34","9","0.091","9.623","4355538","139.892365","patrol02","37.500431","1450395637220","20151218_083934","-0.112"
"2015/12/18 08:39:34","9","0.144","9.636","4355539","139.892365","patrol02","37.500431","1450395637321","20151218_083934","-0.116"
"2015/12/18 08:39:34","9","0.13","9.642","4355540","139.892365","patrol02","37.500431","1450395637422","20151218_083934","-0.124"
"2015/12/18 08:39:34","9","0.143","9.666","4355541","139.892365","patrol02","37.500431","1450395637522","20151218_083934","-0.13"
"2015/12/18 08:39:34","9","0.14","9.666","4355542","139.892365","patrol02","37.500431","1450395637618","20151218_083934","-0.127"
"2015/12/18 08:39:34","9","0.113","9.667","4355543","139.892364","patrol02","37.500431","1450395637719","20151218_083934","-0.126"
"2015/12/18 08:39:34","9","0.189","9.689","4355544","139.892364","patrol02","37.500431","1450395637819","20151218_083934","-0.135"
"2015/12/18 08:39:34","9","0.163","9.689","4355545","139.892364","patrol02","37.500431","1450395637920","20151218_083934","-0.13"
"2015/12/18 08:39:34","9","0.094","9.67","4355546","139.892364","patrol02","37.500431","1450395638021","20151218_083934","-0.121"
"2015/12/18 08:39:34","9","0.101","9.658","4355547","139.892364","patrol02","37.500431","1450395638121","20151218_083934","-0.114"
"2015/12/18 08:39:34","9","0.179","9.668","4355548","139.892364","patrol02","37.500431","1450395638222","20151218_083934","-0.121"
"2015/12/18 08:39:34","9","0.21","9.718","4355549","139.892364","patrol02","37.500431","1450395638318","20151218_083934","-0.141"
"2015/12/18 08:39:34","9","0.163","9.72","4355550","139.892364","patrol02","37.500431","1450395638424","20151218_083934","-0.143"
"2015/12/18 08:39:34","9","0.11","9.701","4355551","139.892364","patrol02","37.500431","1450395638519","20151218_083934","-0.14"
"2015/12/18 08:39:34","9","0.109","9.678","4355552","139.892364","patrol02","37.500431","1450395638618","20151218_083934","-0.135"
"2015/12/18 08:39:34","9","0.185","9.665","4355553","139.892364","patrol02","37.50043","1450395638721","20151218_083934","-0.124"
"2015/12/18 08:39:34","9","0.182","9.688","4355554","139.892364","patrol02","37.50043","1450395638820","20151218_083934","-0.127"
"2015/12/18 08:39:34","9","0.104","9.672","4355555","139.892364","patrol02","37.50043","1450395638922","20151218_083934","-0.124"
"2015/12/18 08:39:34","9","0.112","9.679","4355556","139.892364","patrol02","37.50043","1450395639018","20151218_083934","-0.14"
"2015/12/18 08:39:34","9","0.163","9.671","4355557","139.892364","patrol02","37.50043","1450395639118","20151218_083934","-0.141"
"2015/12/18 08:39:34","9","0.185","9.659","4355558","139.892364","patrol02","37.50043","1450395639219","20151218_083934","-0.133"
"2015/12/18 08:39:34","9","0.121","9.656","4355559","139.892364","patrol02","37.50043","1450395639320","20151218_083934","-0.127"
"2015/12/18 08:39:34","9","0.069","9.638","4355560","139.892364","patrol02","37.50043","1450395639421","20151218_083934","-0.122"
"2015/12/18 08:39:34","9","0.112","9.658","4355561","139.892364","patrol02","37.50043","1450395639521","20151218_083934","-0.128"
"2015/12/18 08:39:34","9","0.197","9.713","4355562","139.892364","patrol02","37.50043","1450395639622","20151218_083934","-0.145"
"2015/12/18 08:39:34","9","0.161","9.701","4355563","139.892363","patrol02","37.50043","1450395639718","20151218_083934","-0.135"
"2015/12/18 08:39:34","9","0.087","9.675","4355564","139.892363","patrol02","37.50043","1450395639818","20151218_083934","-0.131"
"2015/12/18 08:39:34","9","0.077","9.639","4355565","139.892363","patrol02","37.50043","1450395639919","20151218_083934","-0.124"
"2015/12/18 08:39:34","9","0.141","9.633","4355566","139.892363","patrol02","37.50043","1450395640020","20151218_083934","-0.123"
"2015/12/18 08:39:34","9","0.191","9.684","4355567","139.892363","patrol02","37.50043","1450395640121","20151218_083934","-0.132"
"2015/12/18 08:39:34","9","0.145","9.706","4355568","139.892363","patrol02","37.50043","1450395640221","20151218_083934","-0.135"
"2015/12/18 08:39:34","9","0.099","9.686","4355569","139.892363","patrol02","37.50043","1450395640322","20151218_083934","-0.138"
"2015/12/18 08:39:34","9","0.141","9.677","4355570","139.892363","patrol02","37.50043","1450395640418","20151218_083934","-0.134"
"2015/12/18 08:39:34","9","0.184","9.635","4355571","139.892363","patrol02","37.50043","1450395640518","20151218_083934","-0.118"
"2015/12/18 08:39:34","9","0.137","9.655","4355572","139.892363","patrol02","37.50043","1450395640619","20151218_083934","-0.122"
"2015/12/18 08:39:34","9","0.072","9.65","4355573","139.892362","patrol02","37.500429","1450395640720","20151218_083934","-0.118"
"2015/12/18 08:39:34","9","0.135","9.687","4355574","139.892362","patrol02","37.500429","1450395640820","20151218_083934","-0.133"
"2015/12/18 08:39:34","9","0.186","9.717","4355575","139.892362","patrol02","37.500429","1450395640921","20151218_083934","-0.144"
"2015/12/18 08:39:34","9","0.141","9.7","4355576","139.892362","patrol02","37.500429","1450395641022","20151218_083934","-0.132"
"2015/12/18 08:39:34","9","0.072","9.665","4355577","139.892362","patrol02","37.500429","1450395641123","20151218_083934","-0.128"
"2015/12/18 08:39:34","8","0.081","9.635","4355578","139.892362","patrol02","37.500429","1450395641218","20151218_083934","-0.123"
"2015/12/18 08:39:34","8","0.155","9.636","4355579","139.892362","patrol02","37.500429","1450395641319","20151218_083934","-0.124"
"2015/12/18 08:39:34","8","0.183","9.695","4355580","139.892362","patrol02","37.500429","1450395641420","20151218_083934","-0.137"
"2015/12/18 08:39:34","8","0.141","9.683","4355581","139.892362","patrol02","37.500429","1450395641520","20151218_083934","-0.138"
"2015/12/18 08:39:34","8","0.115","9.68","4355582","139.892362","patrol02","37.500429","1450395641621","20151218_083934","-0.14"
"2015/12/18 08:39:34","8","0.173","9.679","4355583","139.892362","patrol02","37.500429","1450395641722","20151218_083934","-0.135"
"2015/12/18 08:39:34","8","0.191","9.66","4355584","139.892362","patrol02","37.500429","1450395641822","20151218_083934","-0.126"
"2015/12/18 08:39:34","8","0.132","9.633","4355585","139.892362","patrol02","37.500429","1450395641918","20151218_083934","-0.119"
"2015/12/18 08:39:34","8","0.103","9.619","4355586","139.892362","patrol02","37.500429","1450395642019","20151218_083934","-0.121"
"2015/12/18 08:39:34","8","0.176","9.676","4355587","139.892362","patrol02","37.500429","1450395642120","20151218_083934","-0.135"
"2015/12/18 08:39:34","8","0.188","9.722","4355588","139.892362","patrol02","37.500429","1450395642220","20151218_083934","-0.147"
"2015/12/18 08:39:34","8","0.111","9.692","4355589","139.892362","patrol02","37.500429","1450395642321","20151218_083934","-0.138"
"2015/12/18 08:39:34","8","0.099","9.678","4355590","139.892362","patrol02","37.500429","1450395642422","20151218_083934","-0.142"
"2015/12/18 08:39:34","8","0.179","9.679","4355591","139.892362","patrol02","37.500429","1450395642522","20151218_083934","-0.142"
"2015/12/18 08:39:34","8","0.201","9.656","4355592","139.892362","patrol02","37.500429","1450395642618","20151218_083934","-0.132"
"2015/12/18 08:39:34","8","0.123","9.664","4355593","139.892361","patrol02","37.500428","1450395642719","20151218_083934","-0.128"
"2015/12/18 08:39:34","8","0.084","9.654","4355594","139.892361","patrol02","37.500428","1450395642820","20151218_083934","-0.124"
"2015/12/18 08:39:34","8","0.161","9.711","4355595","139.892361","patrol02","37.500428","1450395642920","20151218_083934","-0.149"
"2015/12/18 08:39:34","8","0.172","9.711","4355596","139.892361","patrol02","37.500428","1450395643021","20151218_083934","-0.148"
"2015/12/18 08:39:34","8","0.091","9.686","4355597","139.892361","patrol02","37.500428","1450395643122","20151218_083934","-0.133"
"2015/12/18 08:39:34","8","0.098","9.66","4355598","139.892361","patrol02","37.500428","1450395643222","20151218_083934","-0.129"
"2015/12/18 08:39:34","8","0.164","9.653","4355599","139.892361","patrol02","37.500428","1450395643318","20151218_083934","-0.127"
"2015/12/18 08:39:34","8","0.156","9.68","4355600","139.892361","patrol02","37.500428","1450395643419","20151218_083934","-0.13"
"2015/12/18 08:39:34","8","0.103","9.675","4355601","139.892361","patrol02","37.500428","1450395643519","20151218_083934","-0.125"
"2015/12/18 08:39:34","8","0.142","9.699","4355602","139.892361","patrol02","37.500428","1450395643620","20151218_083934","-0.137"
"2015/12/18 08:39:34","8","0.219","9.724","4355603","139.892361","patrol02","37.500428","1450395643721","20151218_083934","-0.15"
"2015/12/18 08:39:34","8","0.154","9.7","4355604","139.892361","patrol02","37.500428","1450395643822","20151218_083934","-0.137"
"2015/12/18 08:39:34","8","0.086","9.68","4355605","139.892361","patrol02","37.500428","1450395643922","20151218_083934","-0.129"
"2015/12/18 08:39:34","8","0.112","9.657","4355606","139.892361","patrol02","37.500428","1450395644018","20151218_083934","-0.125"
"2015/12/18 08:39:34","8","0.181","9.677","4355607","139.892361","patrol02","37.500428","1450395644119","20151218_083934","-0.133"
"2015/12/18 08:39:34","8","0.184","9.719","4355608","139.892361","patrol02","37.500428","1450395644219","20151218_083934","-0.139"
"2015/12/18 08:39:34","8","0.14","9.719","4355609","139.892361","patrol02","37.500428","1450395644320","20151218_083934","-0.142"
"2015/12/18 08:39:34","8","0.126","9.698","4355610","139.892361","patrol02","37.500428","1450395644421","20151218_083934","-0.15"
"2015/12/18 08:39:34","8","0.193","9.683","4355611","139.892361","patrol02","37.500428","1450395644522","20151218_083934","-0.144"
"2015/12/18 08:39:34","8","0.191","9.669","4355612","139.892361","patrol02","37.500428","1450395644622","20151218_083934","-0.136"
"2015/12/18 08:39:34","8","0.104","9.655","4355613","139.892361","patrol02","37.500428","1450395644718","20151218_083934","-0.126"
"2015/12/18 08:39:34","8","0.088","9.632","4355614","139.892361","patrol02","37.500428","1450395644819","20151218_083934","-0.124"
"2015/12/18 08:39:34","8","0.161","9.666","4355615","139.892361","patrol02","37.500428","1450395644919","20151218_083934","-0.131"
"2015/12/18 08:39:34","8","0.176","9.705","4355616","139.892361","patrol02","37.500428","1450395645020","20151218_083934","-0.136"
"2015/12/18 08:39:34","8","0.109","9.688","4355617","139.892361","patrol02","37.500428","1450395645121","20151218_083934","-0.135"
"2015/12/18 08:39:34","8","0.124","9.695","4355618","139.892361","patrol02","37.500428","1450395645221","20151218_083934","-0.137"
"2015/12/18 08:39:34","8","0.177","9.653","4355619","139.892361","patrol02","37.500428","1450395645322","20151218_083934","-0.125"
"2015/12/18 08:39:34","8","0.155","9.646","4355620","139.892361","patrol02","37.500428","1450395645418","20151218_083934","-0.123"
"2015/12/18 08:39:34","8","0.087","9.646","4355621","139.892361","patrol02","37.500428","1450395645518","20151218_083934","-0.124"
"2015/12/18 08:39:34","8","0.102","9.65","4355622","139.892361","patrol02","37.500428","1450395645619","20151218_083934","-0.122"
"2015/12/18 08:39:34","8","0.158","9.685","4355623","139.89236","patrol02","37.500428","1450395645720","20151218_083934","-0.136"
"2015/12/18 08:39:34","8","0.121","9.687","4355624","139.89236","patrol02","37.500428","1450395645821","20151218_083934","-0.133"
"2015/12/18 08:39:34","8","0.091","9.67","4355625","139.89236","patrol02","37.500428","1450395645921","20151218_083934","-0.133"
"2015/12/18 08:39:34","8","0.159","9.671","4355626","139.89236","patrol02","37.500428","1450395646022","20151218_083934","-0.129"
"2015/12/18 08:39:34","8","0.174","9.656","4355627","139.89236","patrol02","37.500428","1450395646118","20151218_083934","-0.123"
"2015/12/18 08:39:34","8","0.104","9.645","4355628","139.89236","patrol02","37.500428","1450395646218","20151218_083934","-0.117"
"2015/12/18 08:39:34","8","0.109","9.648","4355629","139.89236","patrol02","37.500428","1450395646319","20151218_083934","-0.122"
"2015/12/18 08:39:34","8","0.175","9.696","4355630","139.89236","patrol02","37.500428","1450395646420","20151218_083934","-0.137"
"2015/12/18 08:39:34","8","0.14","9.699","4355631","139.89236","patrol02","37.500428","1450395646520","20151218_083934","-0.135"
"2015/12/18 08:39:34","8","0.14","9.682","4355632","139.89236","patrol02","37.500428","1450395646621","20151218_083934","-0.135"
"2015/12/18 08:39:34","8","0.18","9.684","4355633","139.89236","patrol02","37.500429","1450395646722","20151218_083934","-0.137"
"2015/12/18 08:39:34","8","0.149","9.675","4355634","139.89236","patrol02","37.500429","1450395646818","20151218_083934","-0.133"
"2015/12/18 08:39:34","8","0.092","9.659","4355635","139.89236","patrol02","37.500429","1450395646918","20151218_083934","-0.127"
"2015/12/18 08:39:34","8","0.118","9.652","4355636","139.89236","patrol02","37.500429","1450395647019","20151218_083934","-0.124"
"2015/12/18 08:39:34","8","0.185","9.693","4355637","139.89236","patrol02","37.500429","1450395647120","20151218_083934","-0.136"
"2015/12/18 08:39:34","8","0.166","9.719","4355638","139.89236","patrol02","37.500429","1450395647220","20151218_083934","-0.138"
"2015/12/18 08:39:34","8","0.099","9.697","4355639","139.89236","patrol02","37.500429","1450395647321","20151218_083934","-0.133"
"2015/12/18 08:39:34","8","0.124","9.706","4355640","139.89236","patrol02","37.500429","1450395647422","20151218_083934","-0.136"
"2015/12/18 08:39:34","8","0.184","9.675","4355641","139.89236","patrol02","37.500429","1450395647523","20151218_083934","-0.128"
"2015/12/18 08:39:34","8","0.141","9.661","4355642","139.89236","patrol02","37.500429","1450395647618","20151218_083934","-0.127"
"2015/12/18 08:39:34","8","0.075","9.643","4355643","139.89236","patrol02","37.500429","1450395647719","20151218_083934","-0.119"
"2015/12/18 08:39:34","8","0.125","9.652","4355644","139.89236","patrol02","37.500429","1450395647820","20151218_083934","-0.121"
"2015/12/18 08:39:34","8","0.155","9.691","4355645","139.89236","patrol02","37.500429","1450395647920","20151218_083934","-0.133"
"2015/12/18 08:39:34","8","0.11","9.686","4355646","139.89236","patrol02","37.500429","1450395648021","20151218_083934","-0.129"
"2015/12/18 08:39:34","8","0.136","9.704","4355647","139.89236","patrol02","37.500429","1450395648122","20151218_083934","-0.135"
"2015/12/18 08:39:34","7","0.172","9.703","4355648","139.89236","patrol02","37.500429","1450395648222","20151218_083934","-0.143"
"2015/12/18 08:39:34","7","0.115","9.68","4355649","139.89236","patrol02","37.500429","1450395648318","20151218_083934","-0.132"
"2015/12/18 08:39:34","7","0.083","9.656","4355650","139.89236","patrol02","37.500429","1450395648419","20151218_083934","-0.121"
"2015/12/18 08:39:34","7","0.142","9.653","4355651","139.89236","patrol02","37.500429","1450395648520","20151218_083934","-0.118"
"2015/12/18 08:39:34","7","0.18","9.692","4355652","139.89236","patrol02","37.500429","1450395648620","20151218_083934","-0.136"
"2015/12/18 08:39:34","7","0.133","9.702","4355653","139.89236","patrol02","37.500429","1450395648721","20151218_083934","-0.131"
"2015/12/18 08:39:34","7","0.129","9.695","4355654","139.89236","patrol02","37.500429","1450395648822","20151218_083934","-0.133"
"2015/12/18 08:39:34","7","0.179","9.7","4355655","139.89236","patrol02","37.500429","1450395648922","20151218_083934","-0.137"
"2015/12/18 08:39:34","7","0.159","9.68","4355656","139.89236","patrol02","37.500429","1450395649018","20151218_083934","-0.131"
"2015/12/18 08:39:34","7","0.094","9.664","4355657","139.89236","patrol02","37.500429","1450395649119","20151218_083934","-0.125"
"2015/12/18 08:39:34","7","0.139","9.657","4355658","139.89236","patrol02","37.500429","1450395649219","20151218_083934","-0.124"
"2015/12/18 08:39:34","7","0.163","9.671","4355659","139.89236","patrol02","37.500429","1450395649320","20151218_083934","-0.125"
"2015/12/18 08:39:34","7","0.088","9.671","4355660","139.89236","patrol02","37.500429","1450395649421","20151218_083934","-0.121"
"2015/12/18 08:39:34","7","0.114","9.653","4355661","139.89236","patrol02","37.500429","1450395649522","20151218_083934","-0.12"
"2015/12/18 08:39:34","7","0.195","9.696","4355662","139.89236","patrol02","37.500429","1450395649622","20151218_083934","-0.135"
"2015/12/18 08:39:34","7","0.159","9.698","4355663","139.89236","patrol02","37.500429","1450395649718","20151218_083934","-0.134"
"2015/12/18 08:39:34","7","0.105","9.678","4355664","139.89236","patrol02","37.500429","1450395649819","20151218_083934","-0.125"
"2015/12/18 08:39:34","7","0.139","9.661","4355665","139.89236","patrol02","37.500429","1450395649919","20151218_083934","-0.118"
"2015/12/18 08:39:34","7","0.186","9.67","4355666","139.89236","patrol02","37.500429","1450395650020","20151218_083934","-0.121"
"2015/12/18 08:39:34","7","0.118","9.678","4355667","139.89236","patrol02","37.500429","1450395650121","20151218_083934","-0.123"
"2015/12/18 08:39:34","6","0.121","9.681","4355668","139.89236","patrol02","37.500429","1450395650222","20151218_083934","-0.135"
"2015/12/18 08:39:34","6","0.196","9.713","4355669","139.89236","patrol02","37.500429","1450395650322","20151218_083934","-0.143"
"2015/12/18 08:39:34","6","0.157","9.707","4355670","139.89236","patrol02","37.500429","1450395650418","20151218_083934","-0.141"
"2015/12/18 08:39:34","6","0.121","9.695","4355671","139.89236","patrol02","37.500429","1450395650519","20151218_083934","-0.139"
"2015/12/18 08:39:34","6","0.167","9.699","4355672","139.89236","patrol02","37.500429","1450395650619","20151218_083934","-0.133"
"2015/12/18 08:39:34","6","0.157","9.681","4355673","139.89236","patrol02","37.500429","1450395650720","20151218_083934","-0.125"
"2015/12/18 08:39:34","6","0.098","9.657","4355674","139.89236","patrol02","37.500429","1450395650821","20151218_083934","-0.12"
"2015/12/18 08:39:34","6","0.127","9.641","4355675","139.89236","patrol02","37.500429","1450395650921","20151218_083934","-0.118"
"2015/12/18 08:39:34","6","0.179","9.68","4355676","139.89236","patrol02","37.500429","1450395651022","20151218_083934","-0.134"
"2015/12/18 08:39:34","6","0.134","9.694","4355677","139.89236","patrol02","37.500429","1450395651118","20151218_083934","-0.136"
"2015/12/18 08:39:34","6","0.11","9.686","4355678","139.89236","patrol02","37.500429","1450395651219","20151218_083934","-0.136"
"2015/12/18 08:39:34","6","0.167","9.697","4355679","139.89236","patrol02","37.500429","1450395651319","20151218_083934","-0.139"
"2015/12/18 08:39:34","6","0.167","9.675","4355680","139.89236","patrol02","37.500429","1450395651420","20151218_083934","-0.131"
"2015/12/18 08:39:34","6","0.098","9.664","4355681","139.89236","patrol02","37.500429","1450395651521","20151218_083934","-0.128"
"2015/12/18 08:39:34","6","0.12","9.644","4355682","139.89236","patrol02","37.500429","1450395651621","20151218_083934","-0.125"
"2015/12/18 08:39:34","6","0.174","9.663","4355683","139.89236","patrol02","37.500429","1450395651722","20151218_083934","-0.132"
"2015/12/18 08:39:34","6","0.126","9.676","4355684","139.89236","patrol02","37.500429","1450395651818","20151218_083934","-0.134"
"2015/12/18 08:39:34","6","0.111","9.682","4355685","139.89236","patrol02","37.500429","1450395651919","20151218_083934","-0.132"
"2015/12/18 08:39:34","6","0.188","9.717","4355686","139.89236","patrol02","37.500429","1450395652019","20151218_083934","-0.144"
"2015/12/18 08:39:34","6","0.157","9.709","4355687","139.89236","patrol02","37.500429","1450395652120","20151218_083934","-0.139"
"2015/12/18 08:39:34","6","0.11","9.694","4355688","139.89236","patrol02","37.500429","1450395652221","20151218_083934","-0.138"
"2015/12/18 08:39:34","6","0.174","9.685","4355689","139.89236","patrol02","37.500429","1450395652321","20151218_083934","-0.13"
"2015/12/18 08:39:34","6","0.166","9.673","4355690","139.89236","patrol02","37.500429","1450395652422","20151218_083934","-0.126"
"2015/12/18 08:39:34","6","0.096","9.653","4355691","139.89236","patrol02","37.500429","1450395652523","20151218_083934","-0.123"
"2015/12/18 08:39:34","6","0.109","9.648","4355692","139.89236","patrol02","37.500429","1450395652618","20151218_083934","-0.111"
"2015/12/18 08:39:34","6","0.168","9.681","4355693","139.89236","patrol02","37.500429","1450395652724","20151218_083934","-0.121"
"2015/12/18 08:39:34","6","0.121","9.685","4355694","139.89236","patrol02","37.500429","1450395652820","20151218_083934","-0.125"
"2015/12/18 08:39:34","6","0.121","9.688","4355695","139.89236","patrol02","37.500429","1450395652919","20151218_083934","-0.137"
"2015/12/18 08:39:34","6","0.171","9.709","4355696","139.89236","patrol02","37.500429","1450395653021","20151218_083934","-0.14"
"2015/12/18 08:39:34","6","0.148","9.684","4355697","139.89236","patrol02","37.500429","1450395653120","20151218_083934","-0.132"
"2015/12/18 08:39:34","6","0.092","9.667","4355698","139.89236","patrol02","37.500429","1450395653218","20151218_083934","-0.128"
"2015/12/18 08:39:34","6","0.136","9.661","4355699","139.89236","patrol02","37.500429","1450395653318","20151218_083934","-0.123"
"2015/12/18 08:39:34","6","0.165","9.672","4355700","139.89236","patrol02","37.500429","1450395653419","20151218_083934","-0.128"
"2015/12/18 08:39:34","6","0.095","9.663","4355701","139.89236","patrol02","37.500429","1450395653520","20151218_083934","-0.125"
"2015/12/18 08:39:34","6","0.137","9.694","4355702","139.89236","patrol02","37.500429","1450395653620","20151218_083934","-0.139"
"2015/12/18 08:39:34","6","0.196","9.711","4355703","139.89236","patrol02","37.500429","1450395653721","20151218_083934","-0.153"
"2015/12/18 08:39:34","6","0.122","9.702","4355704","139.89236","patrol02","37.500429","1450395653822","20151218_083934","-0.145"
"2015/12/18 08:39:34","6","0.122","9.699","4355705","139.89236","patrol02","37.500429","1450395653923","20151218_083934","-0.149"
"2015/12/18 08:39:34","6","0.175","9.691","4355706","139.89236","patrol02","37.500429","1450395654018","20151218_083934","-0.141"
"2015/12/18 08:39:34","6","0.166","9.679","4355707","139.89236","patrol02","37.500429","1450395654119","20151218_083934","-0.133"
"2015/12/18 08:39:34","6","0.089","9.662","4355708","139.89236","patrol02","37.500429","1450395654220","20151218_083934","-0.126"
"2015/12/18 08:39:34","6","0.093","9.643","4355709","139.89236","patrol02","37.500429","1450395654320","20151218_083934","-0.126"
"2015/12/18 08:39:34","6","0.186","9.696","4355710","139.89236","patrol02","37.500429","1450395654421","20151218_083934","-0.142"
"2015/12/18 08:39:34","6","0.153","9.702","4355711","139.89236","patrol02","37.500429","1450395654522","20151218_083934","-0.139"
"2015/12/18 08:39:34","6","0.111","9.685","4355712","139.89236","patrol02","37.500429","1450395654622","20151218_083934","-0.139"
"2015/12/18 08:39:34","6","0.174","9.696","4355713","139.89236","patrol02","37.500429","1450395654718","20151218_083934","-0.148"
"2015/12/18 08:39:34","6","0.152","9.676","4355714","139.89236","patrol02","37.500429","1450395654819","20151218_083934","-0.136"
"2015/12/18 08:39:34","6","0.101","9.671","4355715","139.89236","patrol02","37.500429","1450395654920","20151218_083934","-0.133"
"2015/12/18 08:39:34","6","0.134","9.644","4355716","139.89236","patrol02","37.500429","1450395655020","20151218_083934","-0.12"
"2015/12/18 08:39:34","6","0.15","9.655","4355717","139.89236","patrol02","37.500429","1450395655121","20151218_083934","-0.119"
"2015/12/18 08:39:34","6","0.082","9.65","4355718","139.89236","patrol02","37.500429","1450395655222","20151218_083934","-0.12"
"2015/12/18 08:39:34","6","0.089","9.639","4355719","139.89236","patrol02","37.500429","1450395655322","20151218_083934","-0.119"
"2015/12/18 08:39:34","6","0.151","9.677","4355720","139.89236","patrol02","37.500429","1450395655418","20151218_083934","-0.125"
"2015/12/18 08:39:34","6","0.143","9.697","4355721","139.89236","patrol02","37.500429","1450395655519","20151218_083934","-0.131"
"2015/12/18 08:39:34","6","0.102","9.677","4355722","139.89236","patrol02","37.500429","1450395655619","20151218_083934","-0.134"
"2015/12/18 08:39:34","6","0.162","9.694","4355723","139.89236","patrol02","37.500429","1450395655720","20151218_083934","-0.14"
"2015/12/18 08:39:34","6","0.164","9.677","4355724","139.89236","patrol02","37.500429","1450395655821","20151218_083934","-0.128"
"2015/12/18 08:39:34","6","0.098","9.654","4355725","139.89236","patrol02","37.500429","1450395655922","20151218_083934","-0.127"
"2015/12/18 08:39:34","6","0.118","9.651","4355726","139.89236","patrol02","37.500429","1450395656022","20151218_083934","-0.129"
"2015/12/18 08:39:34","6","0.149","9.672","4355727","139.89236","patrol02","37.500429","1450395656118","20151218_083934","-0.131"
"2015/12/18 08:39:34","6","0.089","9.661","4355728","139.89236","patrol02","37.500429","1450395656219","20151218_083934","-0.126"
"2015/12/18 08:39:34","6","0.144","9.689","4355729","139.89236","patrol02","37.500429","1450395656319","20151218_083934","-0.14"
"2015/12/18 08:39:34","6","0.188","9.721","4355730","139.89236","patrol02","37.500429","1450395656420","20151218_083934","-0.15"
"2015/12/18 08:39:34","6","0.117","9.702","4355731","139.89236","patrol02","37.500429","1450395656521","20151218_083934","-0.141"
"2015/12/18 08:39:34","6","0.119","9.687","4355732","139.89236","patrol02","37.500429","1450395656622","20151218_083934","-0.139"
"2015/12/18 08:39:34","6","0.185","9.673","4355733","139.89236","patrol02","37.500429","1450395656722","20151218_083934","-0.129"
"2015/12/18 08:39:34","6","0.162","9.673","4355734","139.89236","patrol02","37.500429","1450395656818","20151218_083934","-0.131"
"2015/12/18 08:39:34","6","0.096","9.656","4355735","139.89236","patrol02","37.500429","1450395656919","20151218_083934","-0.126"
"2015/12/18 08:39:34","6","0.152","9.658","4355736","139.89236","patrol02","37.500429","1450395657019","20151218_083934","-0.125"
"2015/12/18 08:39:34","6","0.155","9.678","4355737","139.89236","patrol02","37.500429","1450395657120","20151218_083934","-0.137"
"2015/12/18 08:39:34","6","0.11","9.676","4355738","139.89236","patrol02","37.500429","1450395657221","20151218_083934","-0.138"
"2015/12/18 08:39:34","6","0.18","9.7","4355739","139.89236","patrol02","37.500429","1450395657321","20151218_083934","-0.145"
"2015/12/18 08:39:34","6","0.17","9.682","4355740","139.89236","patrol02","37.500429","1450395657422","20151218_083934","-0.133"
"2015/12/18 08:39:34","6","0.1","9.673","4355741","139.89236","patrol02","37.500429","1450395657518","20151218_083934","-0.132"
"2015/12/18 08:39:34","6","0.141","9.667","4355742","139.89236","patrol02","37.500429","1450395657619","20151218_083934","-0.126"
"2015/12/18 08:39:34","6","0.182","9.668","4355743","139.89236","patrol02","37.500429","1450395657719","20151218_083934","-0.123"
"2015/12/18 08:39:34","6","0.124","9.645","4355744","139.89236","patrol02","37.500429","1450395657820","20151218_083934","-0.121"
"2015/12/18 08:39:34","6","0.119","9.635","4355745","139.89236","patrol02","37.500429","1450395657921","20151218_083934","-0.119"
"2015/12/18 08:39:34","6","0.179","9.685","4355746","139.89236","patrol02","37.500429","1450395658021","20151218_083934","-0.132"
"2015/12/18 08:39:34","6","0.144","9.698","4355747","139.89236","patrol02","37.500429","1450395658122","20151218_083934","-0.134"
"2015/12/18 08:39:34","5","0.115","9.679","4355748","139.89236","patrol02","37.500429","1450395658218","20151218_083934","-0.136"
"2015/12/18 08:39:34","5","0.177","9.696","4355749","139.89236","patrol02","37.500429","1450395658319","20151218_083934","-0.143"
"2015/12/18 08:39:34","5","0.184","9.688","4355750","139.89236","patrol02","37.500429","1450395658419","20151218_083934","-0.138"
"2015/12/18 08:39:34","5","0.112","9.657","4355751","139.89236","patrol02","37.500429","1450395658520","20151218_083934","-0.129"
"2015/12/18 08:39:34","5","0.154","9.655","4355752","139.89236","patrol02","37.500429","1450395658621","20151218_083934","-0.125"
"2015/12/18 08:39:34","5","0.133","9.665","4355753","139.89236","patrol02","37.500429","1450395658721","20151218_083934","-0.123"
"2015/12/18 08:39:34","5","0.076","9.644","4355754","139.89236","patrol02","37.500429","1450395658822","20151218_083934","-0.119"
"2015/12/18 08:39:34","5","0.141","9.682","4355755","139.89236","patrol02","37.500429","1450395658918","20151218_083934","-0.131"
"2015/12/18 08:39:34","5","0.169","9.704","4355756","139.89236","patrol02","37.500429","1450395659018","20151218_083934","-0.139"
"2015/12/18 08:39:34","5","0.126","9.676","4355757","139.89236","patrol02","37.500429","1450395659119","20151218_083934","-0.144"
"2015/12/18 08:39:34","5","0.154","9.688","4355758","139.89236","patrol02","37.500429","1450395659220","20151218_083934","-0.135"
"2015/12/18 08:39:34","5","0.165","9.673","4355759","139.89236","patrol02","37.500429","1450395659320","20151218_083934","-0.124"
"2015/12/18 08:39:34","5","0.083","9.67","4355760","139.89236","patrol02","37.500429","1450395659421","20151218_083934","-0.127"
"2015/12/18 08:39:34","5","0.135","9.666","4355761","139.89236","patrol02","37.500429","1450395659522","20151218_083934","-0.125"
"2015/12/18 08:39:34","5","0.187","9.649","4355762","139.89236","patrol02","37.500429","1450395659618","20151218_083934","-0.137"
"2015/12/18 08:39:34","5","0.106","9.649","4355763","139.89236","patrol02","37.500429","1450395659718","20151218_083934","-0.138"
"2015/12/18 08:39:34","5","0.112","9.66","4355764","139.89236","patrol02","37.500429","1450395659819","20151218_083934","-0.125"
"2015/12/18 08:39:34","5","0.168","9.717","4355765","139.89236","patrol02","37.500429","1450395659920","20151218_083934","-0.121"
"2015/12/18 08:39:34","5","0.115","9.697","4355766","139.89236","patrol02","37.500429","1450395660020","20151218_083934","-0.134"
"2015/12/18 08:39:34","5","0.143","9.7","4355767","139.89236","patrol02","37.500429","1450395660121","20151218_083934","-0.154"
"2015/12/18 08:39:34","5","0.185","9.71","4355768","139.89236","patrol02","37.500429","1450395660222","20151218_083934","-0.172"
"2015/12/18 08:39:34","5","0.099","9.686","4355769","139.89236","patrol02","37.500429","1450395660318","20151218_083934","-0.158"
"2015/12/18 08:39:34","5","0.108","9.67","4355770","139.89236","patrol02","37.500429","1450395660418","20151218_083934","-0.137"
"2015/12/18 08:39:34","5","0.188","9.651","4355771","139.89236","patrol02","37.500429","1450395660519","20151218_083934","-0.123"
"2015/12/18 08:39:34","5","0.125","9.647","4355772","139.89236","patrol02","37.500429","1450395660620","20151218_083934","-0.121"
"2015/12/18 08:39:34","5","0.101","9.638","4355773","139.89236","patrol02","37.500429","1450395660720","20151218_083934","-0.13"
"2015/12/18 08:39:34","5","0.183","9.665","4355774","139.89236","patrol02","37.500429","1450395660821","20151218_083934","-0.144"
"2015/12/18 08:39:34","5","0.132","9.678","4355775","139.89236","patrol02","37.500429","1450395660922","20151218_083934","-0.148"
"2015/12/18 08:39:34","5","0.12","9.681","4355776","139.89236","patrol02","37.500429","1450395661022","20151218_083934","-0.14"
"2015/12/18 08:39:34","5","0.207","9.715","4355777","139.89236","patrol02","37.500429","1450395661118","20151218_083934","-0.147"
"2015/12/18 08:39:34","5","0.162","9.691","4355778","139.89236","patrol02","37.500429","1450395661219","20151218_083934","-0.132"
"2015/12/18 08:39:34","5","0.101","9.665","4355779","139.89236","patrol02","37.500429","1450395661320","20151218_083934","-0.136"
"2015/12/18 08:39:34","5","0.173","9.659","4355780","139.89236","patrol02","37.500429","1450395661420","20151218_083934","-0.145"
"2015/12/18 08:39:34","5","0.152","9.651","4355781","139.89236","patrol02","37.500429","1450395661521","20151218_083934","-0.135"
"2015/12/18 08:39:34","5","0.099","9.64","4355782","139.89236","patrol02","37.500429","1450395661622","20151218_083934","-0.109"
"2015/12/18 08:39:34","5","0.148","9.627","4355783","139.89236","patrol02","37.500429","1450395661722","20151218_083934","-0.096"
"2015/12/18 08:39:34","5","0.114","9.656","4355784","139.89236","patrol02","37.500429","1450395661818","20151218_083934","-0.116"
"2015/12/18 08:39:34","5","0.066","9.664","4355785","139.89236","patrol02","37.500429","1450395661919","20151218_083934","-0.137"
"2015/12/18 08:39:34","5","0.169","9.686","4355786","139.89236","patrol02","37.500429","1450395662019","20151218_083934","-0.158"
"2015/12/18 08:39:34","5","0.187","9.705","4355787","139.89236","patrol02","37.500429","1450395662120","20151218_083934","-0.159"
"2015/12/18 08:39:34","5","0.085","9.684","4355788","139.89236","patrol02","37.500429","1450395662221","20151218_083934","-0.133"
"2015/12/18 08:39:34","5","0.139","9.676","4355789","139.89236","patrol02","37.500429","1450395662322","20151218_083934","-0.124"
"2015/12/18 08:39:34","5","0.159","9.659","4355790","139.89236","patrol02","37.500429","1450395662422","20151218_083934","-0.118"
"2015/12/18 08:39:34","5","0.101","9.643","4355791","139.89236","patrol02","37.500429","1450395662518","20151218_083934","-0.126"
"2015/12/18 08:39:34","5","0.132","9.643","4355792","139.89236","patrol02","37.500429","1450395662619","20151218_083934","-0.123"
"2015/12/18 08:39:34","5","0.144","9.651","4355793","139.89236","patrol02","37.500429","1450395662719","20151218_083934","-0.121"
"2015/12/18 08:39:34","5","0.065","9.652","4355794","139.89236","patrol02","37.500429","1450395662820","20151218_083934","-0.126"
"2015/12/18 08:39:34","5","0.143","9.678","4355795","139.89236","patrol02","37.500429","1450395662921","20151218_083934","-0.134"
"2015/12/18 08:39:34","5","0.171","9.698","4355796","139.89236","patrol02","37.500429","1450395663022","20151218_083934","-0.134"
"2015/12/18 08:39:34","5","0.115","9.68","4355797","139.89236","patrol02","37.500429","1450395663122","20151218_083934","-0.139"
"2015/12/18 08:39:34","5","0.182","9.696","4355798","139.89236","patrol02","37.500429","1450395663218","20151218_083934","-0.148"
"2015/12/18 08:39:34","5","0.155","9.682","4355799","139.89236","patrol02","37.500429","1450395663319","20151218_083934","-0.139"
"2015/12/18 08:39:34","5","0.104","9.674","4355800","139.89236","patrol02","37.500429","1450395663419","20151218_083934","-0.133"
"2015/12/18 08:39:34","5","0.164","9.663","4355801","139.89236","patrol02","37.500429","1450395663520","20151218_083934","-0.118"
"2015/12/18 08:39:34","5","0.18","9.661","4355802","139.89236","patrol02","37.500429","1450395663621","20151218_083934","-0.123"
"2015/12/18 08:39:34","5","0.114","9.657","4355803","139.89236","patrol02","37.500429","1450395663721","20151218_083934","-0.132"
"2015/12/18 08:39:34","5","0.142","9.657","4355804","139.89236","patrol02","37.500429","1450395663822","20151218_083934","-0.139"
"2015/12/18 08:39:34","5","0.178","9.697","4355805","139.89236","patrol02","37.500429","1450395663918","20151218_083934","-0.15"
"2015/12/18 08:39:34","5","0.129","9.689","4355806","139.89236","patrol02","37.500429","1450395664019","20151218_083934","-0.144"
"2015/12/18 08:39:34","5","0.167","9.713","4355807","139.89236","patrol02","37.500429","1450395664119","20151218_083934","-0.143"
"2015/12/18 08:39:34","5","0.198","9.725","4355808","139.89236","patrol02","37.500429","1450395664220","20151218_083934","-0.149"
"2015/12/18 08:39:34","5","0.12","9.699","4355809","139.89236","patrol02","37.500429","1450395664321","20151218_083934","-0.144"
"2015/12/18 08:39:34","5","0.132","9.69","4355810","139.89236","patrol02","37.500429","1450395664421","20151218_083934","-0.145"
"2015/12/18 08:39:34","5","0.175","9.675","4355811","139.89236","patrol02","37.500429","1450395664518","20151218_083934","-0.132"
"2015/12/18 08:39:34","5","0.11","9.677","4355812","139.89236","patrol02","37.500429","1450395664618","20151218_083934","-0.126"
"2015/12/18 08:39:34","5","0.117","9.667","4355813","139.89236","patrol02","37.500429","1450395664718","20151218_083934","-0.129"
"2015/12/18 08:39:34","5","0.165","9.674","4355814","139.89236","patrol02","37.500429","1450395664819","20151218_083934","-0.132"
"2015/12/18 08:39:34","5","0.107","9.665","4355815","139.89236","patrol02","37.500429","1450395664920","20151218_083934","-0.132"
"2015/12/18 08:39:34","5","0.116","9.678","4355816","139.89236","patrol02","37.500429","1450395665021","20151218_083934","-0.137"
"2015/12/18 08:39:34","5","0.189","9.717","4355817","139.89236","patrol02","37.500429","1450395665121","20151218_083934","-0.154"
"2015/12/18 08:39:34","5","0.144","9.712","4355818","139.89236","patrol02","37.500429","1450395665222","20151218_083934","-0.143"
"2015/12/18 08:39:34","5","0.132","9.71","4355819","139.89236","patrol02","37.500429","1450395665318","20151218_083934","-0.148"
"2015/12/18 08:39:34","5","0.179","9.715","4355820","139.89236","patrol02","37.500429","1450395665418","20151218_083934","-0.15"
"2015/12/18 08:39:34","5","0.122","9.718","4355821","139.89236","patrol02","37.500429","1450395665519","20151218_083934","-0.147"
"2015/12/18 08:39:34","5","0.111","9.689","4355822","139.89236","patrol02","37.500429","1450395665620","20151218_083934","-0.14"
"2015/12/18 08:39:34","5","0.174","9.669","4355823","139.89236","patrol02","37.500429","1450395665720","20151218_083934","-0.131"
"2015/12/18 08:39:34","5","0.126","9.652","4355824","139.89236","patrol02","37.500429","1450395665821","20151218_083934","-0.126"
"2015/12/18 08:39:34","5","0.105","9.63","4355825","139.89236","patrol02","37.500429","1450395665922","20151218_083934","-0.121"
"2015/12/18 08:39:34","5","0.163","9.659","4355826","139.89236","patrol02","37.500429","1450395666018","20151218_083934","-0.127"
"2015/12/18 08:39:34","5","0.131","9.656","4355827","139.89236","patrol02","37.500429","1450395666118","20151218_083934","-0.125"
"2015/12/18 08:39:34","5","0.13","9.675","4355828","139.89236","patrol02","37.500429","1450395666219","20151218_083934","-0.134"
"2015/12/18 08:39:34","5","0.198","9.707","4355829","139.89236","patrol02","37.500429","1450395666320","20151218_083934","-0.148"
"2015/12/18 08:39:34","5","0.134","9.706","4355830","139.89236","patrol02","37.500429","1450395666420","20151218_083934","-0.143"
"2015/12/18 08:39:34","5","0.145","9.724","4355831","139.89236","patrol02","37.500429","1450395666521","20151218_083934","-0.152"
"2015/12/18 08:39:34","5","0.177","9.7","4355832","139.89236","patrol02","37.500429","1450395666622","20151218_083934","-0.146"
"2015/12/18 08:39:34","5","0.108","9.697","4355833","139.89236","patrol02","37.500429","1450395666723","20151218_083934","-0.139"
"2015/12/18 08:39:34","5","0.136","9.665","4355834","139.89236","patrol02","37.500429","1450395666823","20151218_083934","-0.129"
"2015/12/18 08:39:34","5","0.176","9.662","4355835","139.89236","patrol02","37.500429","1450395666919","20151218_083934","-0.132"
"2015/12/18 08:39:34","5","0.103","9.647","4355836","139.89236","patrol02","37.500429","1450395667018","20151218_083934","-0.129"
"2015/12/18 08:39:34","5","0.116","9.641","4355837","139.89236","patrol02","37.500429","1450395667120","20151218_083934","-0.125"
"2015/12/18 08:39:34","5","0.159","9.674","4355838","139.89236","patrol02","37.500429","1450395667219","20151218_083934","-0.132"
"2015/12/18 08:39:34","5","0.087","9.662","4355839","139.89236","patrol02","37.500429","1450395667322","20151218_083934","-0.129"
"2015/12/18 08:39:34","5","0.15","9.684","4355840","139.89236","patrol02","37.500429","1450395667421","20151218_083934","-0.147"
"2015/12/18 08:39:34","5","0.187","9.682","4355841","139.89236","patrol02","37.500429","1450395667518","20151218_083934","-0.148"
"2015/12/18 08:39:34","5","0.13","9.695","4355842","139.89236","patrol02","37.500429","1450395667619","20151218_083934","-0.147"
"2015/12/18 08:39:34","5","0.161","9.715","4355843","139.89236","patrol02","37.500429","1450395667720","20151218_083934","-0.16"
"2015/12/18 08:39:34","5","0.167","9.7","4355844","139.89236","patrol02","37.500429","1450395667820","20151218_083934","-0.148"
"2015/12/18 08:39:34","5","0.119","9.671","4355845","139.89236","patrol02","37.500429","1450395667921","20151218_083934","-0.14"
"2015/12/18 08:39:34","5","0.137","9.651","4355846","139.89236","patrol02","37.500429","1450395668022","20151218_083934","-0.128"
