"measurement_datetime","gps_error_meter","accel_y_longitudinal","accel_z_vertical","oid","longitude","car_name","latitude","measurement_ms","measurement_data_id","accel_x_transverse"
"2015/12/17 13:06:56","23","0.45","9.545","4655751","139.897226","patrol02","37.491543","1450325301430","20151217_130656","0.177"
"2015/12/17 13:06:56","23","0.441","9.527","4655752","139.897227","patrol02","37.491534","1450325301530","20151217_130656","0.173"
"2015/12/17 13:06:56","23","0.566","9.67","4655753","139.897229","patrol02","37.491525","1450325301631","20151217_130656","0.22"
"2015/12/17 13:06:56","23","0.523","9.771","4655754","139.897231","patrol02","37.491516","1450325301732","20151217_130656","0.203"
"2015/12/17 13:06:56","23","0.457","9.708","4655755","139.897232","patrol02","37.491507","1450325301833","20151217_130656","0.219"
"2015/12/17 13:06:56","23","0.458","9.659","4655756","139.897234","patrol02","37.491498","1450325301933","20151217_130656","0.266"
"2015/12/17 13:06:56","23","0.474","9.613","4655757","139.897236","patrol02","37.491489","1450325302029","20151217_130656","0.32"
"2015/12/17 13:06:56","23","0.476","9.566","4655758","139.897237","patrol02","37.49148","1450325302130","20151217_130656","0.318"
"2015/12/17 13:06:56","23","0.573","9.565","4655759","139.897239","patrol02","37.491471","1450325302230","20151217_130656","0.314"
"2015/12/17 13:06:56","23","0.413","9.632","4655760","139.897241","patrol02","37.491462","1450325302331","20151217_130656","0.378"
"2015/12/17 13:06:56","23","0.467","9.638","4655761","139.897243","patrol02","37.491452","1450325302432","20151217_130656","0.357"
"2015/12/17 13:06:56","23","0.474","9.739","4655762","139.897247","patrol02","37.491442","1450325302533","20151217_130656","0.406"
"2015/12/17 13:06:56","23","0.382","9.765","4655763","139.89725","patrol02","37.491432","1450325302633","20151217_130656","0.452"
"2015/12/17 13:06:56","23","0.574","9.593","4655764","139.897254","patrol02","37.491422","1450325302729","20151217_130656","0.478"
"2015/12/17 13:06:56","23","0.483","9.349","4655765","139.897257","patrol02","37.491412","1450325302830","20151217_130656","0.53"
"2015/12/17 13:06:56","23","0.271","9.353","4655766","139.897261","patrol02","37.491401","1450325302930","20151217_130656","0.42"
"2015/12/17 13:06:56","23","0.257","9.676","4655767","139.897264","patrol02","37.491391","1450325303031","20151217_130656","0.477"
"2015/12/17 13:06:56","23","0.034","10.001","4655768","139.897268","patrol02","37.491381","1450325303132","20151217_130656","0.454"
"2015/12/17 13:06:56","23","0.004","10.064","4655769","139.897271","patrol02","37.49137","1450325303232","20151217_130656","0.372"
"2015/12/17 13:06:56","23","0.164","9.736","4655770","139.897275","patrol02","37.49136","1450325303333","20151217_130656","0.267"
"2015/12/17 13:06:56","20","0.054","9.402","4655771","139.897278","patrol02","37.49135","1450325303429","20151217_130656","0.244"
"2015/12/17 13:06:56","20","-0.02","9.333","4655772","139.897282","patrol02","37.491339","1450325303530","20151217_130656","0.339"
"2015/12/17 13:06:56","20","0.053","9.459","4655773","139.897286","patrol02","37.491329","1450325303630","20151217_130656","0.327"
"2015/12/17 13:06:56","20","0.001","9.676","4655774","139.89729","patrol02","37.491318","1450325303731","20151217_130656","0.476"
"2015/12/17 13:06:56","20","-0.138","9.904","4655775","139.897294","patrol02","37.491307","1450325303832","20151217_130656","0.66"
"2015/12/17 13:06:56","20","-0.105","9.754","4655776","139.897298","patrol02","37.491296","1450325303932","20151217_130656","0.654"
"2015/12/17 13:06:56","20","-0.114","9.666","4655777","139.897302","patrol02","37.491286","1450325304033","20151217_130656","0.511"
"2015/12/17 13:06:56","20","0.182","9.785","4655778","139.897306","patrol02","37.491276","1450325304129","20151217_130656","0.459"
"2015/12/17 13:06:56","20","0.133","9.667","4655779","139.89731","patrol02","37.491265","1450325304229","20151217_130656","0.498"
"2015/12/17 13:06:56","20","0.03","9.916","4655780","139.897313","patrol02","37.491254","1450325304330","20151217_130656","0.576"
"2015/12/17 13:06:56","19","0.158","10.259","4655781","139.897317","patrol02","37.491244","1450325304431","20151217_130656","0.519"
"2015/12/17 13:06:56","19","0.251","9.872","4655782","139.897319","patrol02","37.491234","1450325304532","20151217_130656","0.588"
"2015/12/17 13:06:56","19","0.282","8.249","4655783","139.897321","patrol02","37.491225","1450325304632","20151217_130656","0.612"
"2015/12/17 13:06:56","19","0.067","8.584","4655784","139.897323","patrol02","37.491216","1450325304733","20151217_130656","0.535"
"2015/12/17 13:06:56","19","-0.138","9.642","4655785","139.897325","patrol02","37.491207","1450325304829","20151217_130656","0.701"
"2015/12/17 13:06:56","19","0.23","10.864","4655786","139.897327","patrol02","37.491198","1450325304929","20151217_130656","0.649"
"2015/12/17 13:06:56","19","0.205","10.28","4655787","139.897329","patrol02","37.491188","1450325305030","20151217_130656","0.599"
"2015/12/17 13:06:56","19","-0.164","9.769","4655788","139.897331","patrol02","37.491179","1450325305131","20151217_130656","0.509"
"2015/12/17 13:06:56","19","0.672","8.976","4655789","139.897333","patrol02","37.49117","1450325305231","20151217_130656","0.416"
"2015/12/17 13:06:56","19","0.512","8.801","4655790","139.897335","patrol02","37.491161","1450325305332","20151217_130656","0.404"
"2015/12/17 13:06:56","21","0.359","9.023","4655791","139.897338","patrol02","37.491151","1450325305433","20151217_130656","0.504"
"2015/12/17 13:06:56","21","0.311","9.469","4655792","139.897342","patrol02","37.49114","1450325305529","20151217_130656","0.504"
"2015/12/17 13:06:56","21","0.523","9.717","4655793","139.897346","patrol02","37.491129","1450325305629","20151217_130656","0.634"
"2015/12/17 13:06:56","21","0.021","10.342","4655794","139.89735","patrol02","37.491118","1450325305730","20151217_130656","0.772"
"2015/12/17 13:06:56","21","0.136","10.425","4655795","139.897354","patrol02","37.491108","1450325305831","20151217_130656","0.762"
"2015/12/17 13:06:56","21","0.61","9.994","4655796","139.897359","patrol02","37.491097","1450325305931","20151217_130656","0.742"
"2015/12/17 13:06:56","21","0.507","9.256","4655797","139.897363","patrol02","37.491086","1450325306032","20151217_130656","0.733"
"2015/12/17 13:06:56","21","0.248","9.094","4655798","139.897367","patrol02","37.491075","1450325306133","20151217_130656","0.482"
"2015/12/17 13:06:56","21","0.675","9.336","4655799","139.897371","patrol02","37.491064","1450325306229","20151217_130656","0.351"
"2015/12/17 13:06:56","21","0.491","9.766","4655800","139.897375","patrol02","37.491054","1450325306329","20151217_130656","0.285"
"2015/12/17 13:06:56","18","0.052","9.961","4655801","139.897379","patrol02","37.491043","1450325306430","20151217_130656","0.324"
"2015/12/17 13:06:56","18","0.172","9.882","4655802","139.897383","patrol02","37.491032","1450325306531","20151217_130656","0.443"
"2015/12/17 13:06:56","18","0.259","9.619","4655803","139.897387","patrol02","37.491021","1450325306631","20151217_130656","0.465"
"2015/12/17 13:06:56","18","0.302","9.434","4655804","139.89739","patrol02","37.49101","1450325306732","20151217_130656","0.514"
"2015/12/17 13:06:56","18","0.243","9.392","4655805","139.897394","patrol02","37.490999","1450325306833","20151217_130656","0.514"
"2015/12/17 13:06:56","18","0.219","9.618","4655806","139.897398","patrol02","37.490988","1450325306933","20151217_130656","0.476"
"2015/12/17 13:06:56","18","0.259","9.862","4655807","139.897401","patrol02","37.490978","1450325307029","20151217_130656","0.361"
"2015/12/17 13:06:56","18","0.471","9.78","4655808","139.897405","patrol02","37.490967","1450325307130","20151217_130656","0.387"
"2015/12/17 13:06:56","18","0.248","9.689","4655809","139.897408","patrol02","37.490956","1450325307231","20151217_130656","0.456"
"2015/12/17 13:06:56","18","0.193","9.548","4655810","139.897412","patrol02","37.490945","1450325307331","20151217_130656","0.264"
"2015/12/17 13:06:56","18","0.518","9.616","4655811","139.897415","patrol02","37.490935","1450325307432","20151217_130656","0.351"
"2015/12/17 13:06:56","18","0.587","9.548","4655812","139.897419","patrol02","37.490925","1450325307533","20151217_130656","0.407"
"2015/12/17 13:06:56","18","0.366","9.429","4655813","139.897422","patrol02","37.490915","1450325307633","20151217_130656","0.326"
"2015/12/17 13:06:56","18","0.218","9.521","4655814","139.897425","patrol02","37.490905","1450325307729","20151217_130656","0.251"
"2015/12/17 13:06:56","18","0.261","9.683","4655815","139.897428","patrol02","37.490895","1450325307830","20151217_130656","0.277"
"2015/12/17 13:06:56","18","0.393","9.697","4655816","139.897431","patrol02","37.490886","1450325307930","20151217_130656","0.247"
"2015/12/17 13:06:56","18","0.339","9.89","4655817","139.897434","patrol02","37.490876","1450325308031","20151217_130656","0.408"
"2015/12/17 13:06:56","18","-0.004","10.102","4655818","139.897438","patrol02","37.490866","1450325308132","20151217_130656","0.489"
"2015/12/17 13:06:56","18","0.305","9.7","4655819","139.897441","patrol02","37.490856","1450325308233","20151217_130656","0.447"
"2015/12/17 13:06:56","18","0.355","9.281","4655820","139.897444","patrol02","37.490846","1450325308333","20151217_130656","0.547"
"2015/12/17 13:06:56","18","0.241","9.171","4655821","139.897448","patrol02","37.490836","1450325308429","20151217_130656","0.559"
"2015/12/17 13:06:56","18","0.248","9.308","4655822","139.897454","patrol02","37.490825","1450325308530","20151217_130656","0.318"
"2015/12/17 13:06:56","18","0.068","9.949","4655823","139.897459","patrol02","37.490813","1450325308630","20151217_130656","0.226"
"2015/12/17 13:06:56","18","-0.055","10.444","4655824","139.897465","patrol02","37.490802","1450325308731","20151217_130656","0.22"
"2015/12/17 13:06:56","18","0.434","10.268","4655825","139.89747","patrol02","37.49079","1450325308832","20151217_130656","0.153"
"2015/12/17 13:06:56","18","0.361","9.309","4655826","139.897476","patrol02","37.490779","1450325308932","20151217_130656","0.187"
"2015/12/17 13:06:56","18","0.028","8.787","4655827","139.897482","patrol02","37.490767","1450325309033","20151217_130656","0.253"
"2015/12/17 13:06:56","18","0.377","8.794","4655828","139.897487","patrol02","37.490756","1450325309129","20151217_130656","0.283"
"2015/12/17 13:06:56","18","0.431","9.226","4655829","139.897493","patrol02","37.490745","1450325309230","20151217_130656","0.237"
"2015/12/17 13:06:56","18","-0.029","9.906","4655830","139.897498","patrol02","37.490733","1450325309330","20151217_130656","0.282"
"2015/12/17 13:06:56","14","-0.108","10.465","4655831","139.897504","patrol02","37.490722","1450325309431","20151217_130656","0.455"
"2015/12/17 13:06:56","14","0.287","10.278","4655832","139.89751","patrol02","37.490712","1450325309532","20151217_130656","0.558"
"2015/12/17 13:06:56","14","0.464","9.687","4655833","139.897516","patrol02","37.490701","1450325309632","20151217_130656","0.481"
"2015/12/17 13:06:56","14","0.441","9.136","4655834","139.897522","patrol02","37.490691","1450325309733","20151217_130656","0.509"
"2015/12/17 13:06:56","14","0.61","9.214","4655835","139.897527","patrol02","37.490681","1450325309829","20151217_130656","0.463"
"2015/12/17 13:06:56","14","0.461","9.83","4655836","139.897533","patrol02","37.49067","1450325309930","20151217_130656","0.509"
"2015/12/17 13:06:56","14","0.47","10.188","4655837","139.897539","patrol02","37.49066","1450325310030","20151217_130656","0.344"
"2015/12/17 13:06:56","14","0.398","10.017","4655838","139.897545","patrol02","37.490649","1450325310131","20151217_130656","0.44"
"2015/12/17 13:06:56","14","0.153","9.463","4655839","139.897551","patrol02","37.490639","1450325310232","20151217_130656","0.408"
"2015/12/17 13:06:56","14","0.367","9.264","4655840","139.897556","patrol02","37.490628","1450325310332","20151217_130656","0.352"
"2015/12/17 13:06:56","16","0.715","9.319","4655841","139.897562","patrol02","37.490617","1450325310433","20151217_130656","0.396"
"2015/12/17 13:06:56","16","0.444","9.697","4655842","139.897568","patrol02","37.490605","1450325310529","20151217_130656","0.342"
"2015/12/17 13:06:56","16","0.228","10.016","4655843","139.897573","patrol02","37.490593","1450325310629","20151217_130656","0.363"
"2015/12/17 13:06:56","16","0.346","10.093","4655844","139.897579","patrol02","37.490581","1450325310730","20151217_130656","0.441"
"2015/12/17 13:06:56","16","0.232","9.673","4655845","139.897584","patrol02","37.490568","1450325310831","20151217_130656","0.44"
"2015/12/17 13:06:56","16","0.2","9.214","4655846","139.89759","patrol02","37.490556","1450325310931","20151217_130656","0.509"
"2015/12/17 13:06:56","16","0.15","9.205","4655847","139.897596","patrol02","37.490543","1450325311032","20151217_130656","0.484"
"2015/12/17 13:06:56","16","0.514","9.49","4655848","139.897601","patrol02","37.490531","1450325311133","20151217_130656","0.458"
"2015/12/17 13:06:56","16","0.358","9.543","4655849","139.897607","patrol02","37.490519","1450325311229","20151217_130656","0.499"
"2015/12/17 13:06:56","16","-0.033","9.552","4655850","139.897612","patrol02","37.490507","1450325311329","20151217_130656","0.492"
"2015/12/17 13:06:56","14","0.264","9.823","4655851","139.897618","patrol02","37.490495","1450325311430","20151217_130656","0.467"
"2015/12/17 13:06:56","14","0.486","9.877","4655852","139.897623","patrol02","37.490483","1450325311531","20151217_130656","0.49"
"2015/12/17 13:06:56","14","0.238","9.601","4655853","139.897628","patrol02","37.490472","1450325311631","20151217_130656","0.468"
"2015/12/17 13:06:56","14","0.049","9.415","4655854","139.897633","patrol02","37.49046","1450325311732","20151217_130656","0.468"
"2015/12/17 13:06:56","14","0.32","9.428","4655855","139.897638","patrol02","37.490449","1450325311833","20151217_130656","0.501"
"2015/12/17 13:06:56","14","0.348","9.494","4655856","139.897643","patrol02","37.490438","1450325311929","20151217_130656","0.506"
"2015/12/17 13:06:56","14","0.137","9.619","4655857","139.897648","patrol02","37.490426","1450325312029","20151217_130656","0.533"
"2015/12/17 13:06:56","14","0.375","9.722","4655858","139.897654","patrol02","37.490415","1450325312130","20151217_130656","0.513"
"2015/12/17 13:06:56","14","0.564","9.698","4655859","139.897659","patrol02","37.490403","1450325312231","20151217_130656","0.473"
"2015/12/17 13:06:56","14","0.275","9.667","4655860","139.897664","patrol02","37.490392","1450325312331","20151217_130656","0.531"
"2015/12/17 13:06:56","17","0.408","9.659","4655861","139.897669","patrol02","37.490381","1450325312432","20151217_130656","0.573"
"2015/12/17 13:06:56","17","0.573","9.706","4655862","139.897674","patrol02","37.490369","1450325312533","20151217_130656","0.522"
"2015/12/17 13:06:56","17","0.62","9.835","4655863","139.897679","patrol02","37.490358","1450325312634","20151217_130656","0.486"
"2015/12/17 13:06:56","17","0.537","10.001","4655864","139.897683","patrol02","37.490347","1450325312729","20151217_130656","0.555"
"2015/12/17 13:06:56","17","0.498","9.787","4655865","139.897688","patrol02","37.490335","1450325312835","20151217_130656","0.488"
"2015/12/17 13:06:56","17","0.321","9.646","4655866","139.897693","patrol02","37.490325","1450325312931","20151217_130656","0.584"
"2015/12/17 13:06:56","17","0.187","9.432","4655867","139.897698","patrol02","37.490314","1450325313030","20151217_130656","0.584"
"2015/12/17 13:06:56","17","0.316","9.461","4655868","139.897702","patrol02","37.490302","1450325313132","20151217_130656","0.57"
"2015/12/17 13:06:56","17","0.264","9.598","4655869","139.897707","patrol02","37.490291","1450325313231","20151217_130656","0.588"
"2015/12/17 13:06:56","17","0.038","9.805","4655870","139.897712","patrol02","37.49028","1450325313333","20151217_130656","0.579"
"2015/12/17 13:06:56","19","0.0","9.859","4655871","139.897717","patrol02","37.490269","1450325313429","20151217_130656","0.526"
"2015/12/17 13:06:56","19","0.323","9.817","4655872","139.897721","patrol02","37.490258","1450325313530","20151217_130656","0.468"
"2015/12/17 13:06:56","19","0.371","9.514","4655873","139.897726","patrol02","37.490247","1450325313631","20151217_130656","0.515"
"2015/12/17 13:06:56","19","0.164","9.274","4655874","139.89773","patrol02","37.490236","1450325313731","20151217_130656","0.511"
"2015/12/17 13:06:56","19","0.298","9.334","4655875","139.897735","patrol02","37.490225","1450325313832","20151217_130656","0.451"
"2015/12/17 13:06:56","19","0.421","9.556","4655876","139.89774","patrol02","37.490214","1450325313933","20151217_130656","0.406"
"2015/12/17 13:06:56","19","0.146","9.72","4655877","139.897744","patrol02","37.490203","1450325314033","20151217_130656","0.497"
"2015/12/17 13:06:56","19","0.212","9.989","4655878","139.897749","patrol02","37.490193","1450325314129","20151217_130656","0.453"
"2015/12/17 13:06:56","19","0.431","9.966","4655879","139.897753","patrol02","37.490182","1450325314230","20151217_130656","0.419"
"2015/12/17 13:06:56","19","0.323","9.986","4655880","139.897758","patrol02","37.490171","1450325314330","20151217_130656","0.484"
"2015/12/17 13:06:56","19","0.353","9.783","4655881","139.897762","patrol02","37.49016","1450325314431","20151217_130656","0.502"
"2015/12/17 13:06:56","19","0.592","9.534","4655882","139.897766","patrol02","37.490149","1450325314532","20151217_130656","0.299"
"2015/12/17 13:06:56","19","0.624","9.412","4655883","139.89777","patrol02","37.490139","1450325314633","20151217_130656","0.364"
"2015/12/17 13:06:56","19","0.213","9.408","4655884","139.897773","patrol02","37.490128","1450325314733","20151217_130656","0.393"
"2015/12/17 13:06:56","19","0.364","9.449","4655885","139.897777","patrol02","37.490118","1450325314829","20151217_130656","0.388"
"2015/12/17 13:06:56","19","0.352","9.578","4655886","139.89778","patrol02","37.490107","1450325314930","20151217_130656","0.365"
"2015/12/17 13:06:56","19","0.277","9.599","4655887","139.897784","patrol02","37.490096","1450325315030","20151217_130656","0.333"
"2015/12/17 13:06:56","19","0.173","9.749","4655888","139.897788","patrol02","37.490085","1450325315131","20151217_130656","0.407"
"2015/12/17 13:06:56","19","0.475","9.78","4655889","139.897791","patrol02","37.490074","1450325315232","20151217_130656","0.4"
"2015/12/17 13:06:56","19","0.178","9.631","4655890","139.897795","patrol02","37.490063","1450325315332","20151217_130656","0.467"
"2015/12/17 13:06:56","18","-0.052","9.506","4655891","139.897799","patrol02","37.490053","1450325315433","20151217_130656","0.534"
"2015/12/17 13:06:56","18","0.304","9.607","4655892","139.897804","patrol02","37.490042","1450325315529","20151217_130656","0.554"
"2015/12/17 13:06:56","18","0.306","9.609","4655893","139.89781","patrol02","37.490031","1450325315630","20151217_130656","0.573"
"2015/12/17 13:06:56","18","0.278","9.737","4655894","139.897815","patrol02","37.49002","1450325315730","20151217_130656","0.466"
"2015/12/17 13:06:56","18","0.521","9.777","4655895","139.897821","patrol02","37.490009","1450325315831","20151217_130656","0.467"
"2015/12/17 13:06:56","18","0.545","9.722","4655896","139.897826","patrol02","37.489998","1450325315932","20151217_130656","0.374"
"2015/12/17 13:06:56","18","0.185","9.672","4655897","139.897831","patrol02","37.489987","1450325316032","20151217_130656","0.32"
"2015/12/17 13:06:56","18","0.284","9.739","4655898","139.897837","patrol02","37.489976","1450325316133","20151217_130656","0.308"
"2015/12/17 13:06:56","18","0.505","9.684","4655899","139.897842","patrol02","37.489965","1450325316229","20151217_130656","0.374"
"2015/12/17 13:06:56","18","0.054","9.531","4655900","139.897847","patrol02","37.489954","1450325316330","20151217_130656","0.372"
"2015/12/17 13:06:56","14","0.116","9.535","4655901","139.897853","patrol02","37.489943","1450325316430","20151217_130656","0.451"
"2015/12/17 13:06:56","14","0.396","9.484","4655902","139.897859","patrol02","37.489931","1450325316531","20151217_130656","0.431"
"2015/12/17 13:06:56","14","0.304","9.481","4655903","139.897865","patrol02","37.489919","1450325316632","20151217_130656","0.352"
"2015/12/17 13:06:56","14","0.122","9.754","4655904","139.897872","patrol02","37.489907","1450325316732","20151217_130656","0.366"
"2015/12/17 13:06:56","14","0.286","9.871","4655905","139.897878","patrol02","37.489896","1450325316833","20151217_130656","0.342"
"2015/12/17 13:06:56","14","0.221","9.818","4655906","139.897884","patrol02","37.489884","1450325316929","20151217_130656","0.383"
"2015/12/17 13:06:56","14","0.087","9.751","4655907","139.89789","patrol02","37.489873","1450325317029","20151217_130656","0.442"
"2015/12/17 13:06:56","14","0.398","9.569","4655908","139.897896","patrol02","37.489861","1450325317130","20151217_130656","0.391"
"2015/12/17 13:06:56","14","0.428","9.477","4655909","139.897902","patrol02","37.489849","1450325317231","20151217_130656","0.378"
"2015/12/17 13:06:56","14","0.273","9.549","4655910","139.897908","patrol02","37.489837","1450325317331","20151217_130656","0.31"
"2015/12/17 13:06:56","12","0.413","9.802","4655911","139.897914","patrol02","37.489825","1450325317432","20151217_130656","0.323"
"2015/12/17 13:06:56","12","0.301","9.941","4655912","139.89792","patrol02","37.489813","1450325317533","20151217_130656","0.317"
"2015/12/17 13:06:56","12","0.298","9.854","4655913","139.897925","patrol02","37.489802","1450325317629","20151217_130656","0.424"
"2015/12/17 13:06:56","12","0.166","9.639","4655914","139.897931","patrol02","37.48979","1450325317729","20151217_130656","0.475"
"2015/12/17 13:06:56","12","0.405","9.506","4655915","139.897936","patrol02","37.489779","1450325317830","20151217_130656","0.429"
"2015/12/17 13:06:56","12","0.484","9.475","4655916","139.897942","patrol02","37.489767","1450325317931","20151217_130656","0.458"
"2015/12/17 13:06:56","12","0.185","9.68","4655917","139.897947","patrol02","37.489755","1450325318031","20151217_130656","0.505"
"2015/12/17 13:06:56","12","0.058","9.95","4655918","139.897953","patrol02","37.489743","1450325318132","20151217_130656","0.459"
"2015/12/17 13:06:56","12","0.433","9.864","4655919","139.897958","patrol02","37.489731","1450325318233","20151217_130656","0.483"
"2015/12/17 13:06:56","12","0.188","9.58","4655920","139.897963","patrol02","37.48972","1450325318329","20151217_130656","0.556"
"2015/12/17 13:06:56","12","-0.032","9.436","4655921","139.897969","patrol02","37.489708","1450325318429","20151217_130656","0.518"
"2015/12/17 13:06:56","12","0.326","9.51","4655922","139.897974","patrol02","37.489697","1450325318530","20151217_130656","0.482"
"2015/12/17 13:06:56","12","0.341","9.559","4655923","139.89798","patrol02","37.489685","1450325318629","20151217_130656","0.517"
"2015/12/17 13:06:56","12","0.022","9.683","4655924","139.897986","patrol02","37.489673","1450325318729","20151217_130656","0.482"
"2015/12/17 13:06:56","12","0.012","9.841","4655925","139.897991","patrol02","37.489661","1450325318830","20151217_130656","0.505"
"2015/12/17 13:06:56","12","0.313","9.798","4655926","139.897997","patrol02","37.489649","1450325318931","20151217_130656","0.45"
"2015/12/17 13:06:56","12","0.267","9.532","4655927","139.898002","patrol02","37.489638","1450325319031","20151217_130656","0.397"
"2015/12/17 13:06:56","12","0.315","9.377","4655928","139.898008","patrol02","37.489626","1450325319132","20151217_130656","0.447"
"2015/12/17 13:06:56","12","0.231","9.517","4655929","139.898013","patrol02","37.489614","1450325319233","20151217_130656","0.493"
"2015/12/17 13:06:56","12","0.39","9.649","4655930","139.898018","patrol02","37.489603","1450325319329","20151217_130656","0.364"
"2015/12/17 13:06:56","11","0.34","9.748","4655931","139.898024","patrol02","37.489591","1450325319429","20151217_130656","0.4"
"2015/12/17 13:06:56","11","0.048","9.813","4655932","139.898031","patrol02","37.489579","1450325319530","20151217_130656","0.443"
"2015/12/17 13:06:56","11","0.179","9.883","4655933","139.898037","patrol02","37.489567","1450325319631","20151217_130656","0.384"
"2015/12/17 13:06:56","11","0.461","9.726","4655934","139.898043","patrol02","37.489555","1450325319731","20151217_130656","0.421"
"2015/12/17 13:06:56","11","0.102","9.56","4655935","139.89805","patrol02","37.489543","1450325319833","20151217_130656","0.564"
"2015/12/17 13:06:56","11","0.033","9.495","4655936","139.898056","patrol02","37.489531","1450325319933","20151217_130656","0.564"
"2015/12/17 13:06:56","11","0.343","9.65","4655937","139.898062","patrol02","37.489519","1450325320033","20151217_130656","0.596"
"2015/12/17 13:06:56","11","0.411","9.76","4655938","139.898068","patrol02","37.489508","1450325320129","20151217_130656","0.628"
"2015/12/17 13:06:56","11","0.162","9.807","4655939","139.898075","patrol02","37.489496","1450325320230","20151217_130656","0.547"
"2015/12/17 13:06:56","11","0.166","9.896","4655940","139.898081","patrol02","37.489484","1450325320331","20151217_130656","0.598"
"2015/12/17 13:06:56","9","0.199","9.858","4655941","139.898087","patrol02","37.489472","1450325320431","20151217_130656","0.58"
"2015/12/17 13:06:56","9","0.473","9.623","4655942","139.898094","patrol02","37.489459","1450325320532","20151217_130656","0.548"
"2015/12/17 13:06:56","9","0.281","9.446","4655943","139.898101","patrol02","37.489446","1450325320633","20151217_130656","0.563"
"2015/12/17 13:06:56","9","-0.019","9.448","4655944","139.898108","patrol02","37.489433","1450325320733","20151217_130656","0.486"
"2015/12/17 13:06:56","9","0.018","9.604","4655945","139.898115","patrol02","37.489421","1450325320829","20151217_130656","0.424"
"2015/12/17 13:06:56","9","0.224","9.968","4655946","139.898121","patrol02","37.489409","1450325320930","20151217_130656","0.494"
"2015/12/17 13:06:56","9","0.135","9.959","4655947","139.898128","patrol02","37.489396","1450325321031","20151217_130656","0.369"
"2015/12/17 13:06:56","9","0.209","9.505","4655948","139.898135","patrol02","37.489383","1450325321131","20151217_130656","0.336"
"2015/12/17 13:06:56","9","0.061","9.105","4655949","139.898142","patrol02","37.48937","1450325321232","20151217_130656","0.462"
"2015/12/17 13:06:56","9","0.081","9.242","4655950","139.898149","patrol02","37.489358","1450325321333","20151217_130656","0.525"
"2015/12/17 13:06:56","12","-0.022","9.524","4655951","139.898156","patrol02","37.489345","1450325321433","20151217_130656","0.496"
"2015/12/17 13:06:56","12","-0.236","9.934","4655952","139.898163","patrol02","37.489332","1450325321529","20151217_130656","0.578"
"2015/12/17 13:06:56","12","-0.16","10.092","4655953","139.89817","patrol02","37.489319","1450325321630","20151217_130656","0.672"
"2015/12/17 13:06:56","12","0.186","9.982","4655954","139.898177","patrol02","37.489306","1450325321730","20151217_130656","0.458"
"2015/12/17 13:06:56","12","0.366","9.616","4655955","139.898184","patrol02","37.489293","1450325321831","20151217_130656","0.463"
"2015/12/17 13:06:56","12","0.201","9.196","4655956","139.898192","patrol02","37.48928","1450325321932","20151217_130656","0.332"
"2015/12/17 13:06:56","12","0.19","8.975","4655957","139.898199","patrol02","37.489267","1450325322033","20151217_130656","0.429"
"2015/12/17 13:06:56","12","0.157","9.451","4655958","139.898206","patrol02","37.489254","1450325322133","20151217_130656","0.435"
"2015/12/17 13:06:56","12","0.277","9.91","4655959","139.898213","patrol02","37.489242","1450325322229","20151217_130656","0.434"
"2015/12/17 13:06:56","12","0.25","10.262","4655960","139.89822","patrol02","37.489228","1450325322330","20151217_130656","0.489"
"2015/12/17 13:06:56","14","0.193","10.098","4655961","139.898227","patrol02","37.489215","1450325322430","20151217_130656","0.529"
"2015/12/17 13:06:56","14","0.101","9.976","4655962","139.898234","patrol02","37.489202","1450325322531","20151217_130656","0.552"
"2015/12/17 13:06:56","14","0.574","9.533","4655963","139.898241","patrol02","37.489188","1450325322632","20151217_130656","0.459"
"2015/12/17 13:06:56","14","0.521","9.278","4655964","139.898247","patrol02","37.489175","1450325322732","20151217_130656","0.434"
"2015/12/17 13:06:56","14","0.301","9.146","4655965","139.898254","patrol02","37.489161","1450325322833","20151217_130656","0.475"
"2015/12/17 13:06:56","14","0.159","9.438","4655966","139.89826","patrol02","37.489148","1450325322929","20151217_130656","0.53"
"2015/12/17 13:06:56","14","0.26","9.775","4655967","139.898267","patrol02","37.489135","1450325323030","20151217_130656","0.513"
"2015/12/17 13:06:56","14","0.304","10.009","4655968","139.898274","patrol02","37.489121","1450325323130","20151217_130656","0.448"
"2015/12/17 13:06:56","14","0.13","9.81","4655969","139.89828","patrol02","37.489108","1450325323231","20151217_130656","0.554"
"2015/12/17 13:06:56","14","-0.094","9.641","4655970","139.898287","patrol02","37.489094","1450325323332","20151217_130656","0.527"
"2015/12/17 13:06:56","15","0.344","9.262","4655971","139.898294","patrol02","37.489081","1450325323432","20151217_130656","0.503"
"2015/12/17 13:06:56","15","0.533","9.27","4655972","139.898301","patrol02","37.489068","1450325323533","20151217_130656","0.468"
"2015/12/17 13:06:56","15","0.218","9.574","4655973","139.898307","patrol02","37.489056","1450325323629","20151217_130656","0.588"
"2015/12/17 13:06:56","15","0.128","9.763","4655974","139.898314","patrol02","37.489043","1450325323730","20151217_130656","0.522"
"2015/12/17 13:06:56","15","0.054","9.946","4655975","139.898321","patrol02","37.48903","1450325323830","20151217_130656","0.617"
"2015/12/17 13:06:56","15","0.115","9.879","4655976","139.898328","patrol02","37.489018","1450325323931","20151217_130656","0.493"
"2015/12/17 13:06:56","15","0.346","9.732","4655977","139.898335","patrol02","37.489005","1450325324032","20151217_130656","0.38"
"2015/12/17 13:06:56","15","0.098","9.662","4655978","139.898342","patrol02","37.488992","1450325324132","20151217_130656","0.369"
"2015/12/17 13:06:56","15","0.246","9.559","4655979","139.898349","patrol02","37.488979","1450325324233","20151217_130656","0.245"
"2015/12/17 13:06:56","15","0.599","9.563","4655980","139.898355","patrol02","37.488967","1450325324329","20151217_130656","0.397"
"2015/12/17 13:06:56","15","0.476","9.44","4655981","139.898362","patrol02","37.488955","1450325324429","20151217_130656","0.507"
"2015/12/17 13:06:56","15","-0.044","9.415","4655982","139.898369","patrol02","37.488942","1450325324530","20151217_130656","0.435"
"2015/12/17 13:06:56","15","-0.003","9.706","4655983","139.898376","patrol02","37.48893","1450325324631","20151217_130656","0.484"
"2015/12/17 13:06:56","15","0.109","9.848","4655984","139.898383","patrol02","37.488918","1450325324732","20151217_130656","0.434"
"2015/12/17 13:06:56","15","0.15","9.698","4655985","139.89839","patrol02","37.488906","1450325324832","20151217_130656","0.389"
"2015/12/17 13:06:56","15","0.321","9.527","4655986","139.898397","patrol02","37.488893","1450325324933","20151217_130656","0.437"
"2015/12/17 13:06:56","15","0.248","9.42","4655987","139.898403","patrol02","37.488882","1450325325029","20151217_130656","0.509"
"2015/12/17 13:06:56","15","0.31","9.58","4655988","139.89841","patrol02","37.488869","1450325325129","20151217_130656","0.521"
"2015/12/17 13:06:56","15","0.509","9.661","4655989","139.898417","patrol02","37.488857","1450325325230","20151217_130656","0.514"
"2015/12/17 13:06:56","15","0.33","9.699","4655990","139.898424","patrol02","37.488845","1450325325331","20151217_130656","0.681"
"2015/12/17 13:06:56","17","0.103","9.82","4655991","139.89843","patrol02","37.488832","1450325325431","20151217_130656","0.333"
"2015/12/17 13:06:56","17","0.134","10.274","4655992","139.898437","patrol02","37.488819","1450325325532","20151217_130656","0.477"
"2015/12/17 13:06:56","17","0.492","10.216","4655993","139.898443","patrol02","37.488806","1450325325633","20151217_130656","0.436"
"2015/12/17 13:06:56","17","0.456","9.517","4655994","139.89845","patrol02","37.488794","1450325325729","20151217_130656","0.348"
"2015/12/17 13:06:56","17","0.128","9.111","4655995","139.898456","patrol02","37.488781","1450325325829","20151217_130656","0.571"
"2015/12/17 13:06:56","17","0.403","9.021","4655996","139.898463","patrol02","37.488767","1450325325930","20151217_130656","0.676"
"2015/12/17 13:06:56","17","0.548","9.231","4655997","139.898469","patrol02","37.488754","1450325326031","20151217_130656","0.549"
"2015/12/17 13:06:56","17","0.299","9.788","4655998","139.898476","patrol02","37.488741","1450325326131","20151217_130656","0.531"
"2015/12/17 13:06:56","17","0.076","10.074","4655999","139.898482","patrol02","37.488728","1450325326232","20151217_130656","0.552"
"2015/12/17 13:06:56","17","0.018","9.943","4656000","139.898489","patrol02","37.488715","1450325326333","20151217_130656","0.595"
"2015/12/17 13:06:56","18","0.08","9.595","4656001","139.898496","patrol02","37.488702","1450325326433","20151217_130656","0.697"
"2015/12/17 13:06:56","18","0.459","9.316","4656002","139.898503","patrol02","37.488689","1450325326529","20151217_130656","0.617"
"2015/12/17 13:06:56","18","0.381","9.134","4656003","139.89851","patrol02","37.488676","1450325326630","20151217_130656","0.656"
"2015/12/17 13:06:56","18","0.18","9.438","4656004","139.898518","patrol02","37.488663","1450325326731","20151217_130656","0.603"
"2015/12/17 13:06:56","18","-0.041","10.076","4656005","139.898525","patrol02","37.48865","1450325326831","20151217_130656","0.649"
"2015/12/17 13:06:56","18","0.241","10.489","4656006","139.898532","patrol02","37.488637","1450325326932","20151217_130656","0.717"
"2015/12/17 13:06:56","18","0.344","10.059","4656007","139.89854","patrol02","37.488624","1450325327033","20151217_130656","0.727"
"2015/12/17 13:06:56","18","0.343","9.431","4656008","139.898547","patrol02","37.488611","1450325327133","20151217_130656","0.607"
"2015/12/17 13:06:56","18","0.355","9.032","4656009","139.898554","patrol02","37.488599","1450325327229","20151217_130656","0.692"
"2015/12/17 13:06:56","18","0.266","9.179","4656010","139.898562","patrol02","37.488585","1450325327335","20151217_130656","0.595"
"2015/12/17 13:06:56","19","0.446","9.559","4656011","139.898569","patrol02","37.488572","1450325327431","20151217_130656","0.485"
"2015/12/17 13:06:56","19","0.422","9.705","4656012","139.898577","patrol02","37.488559","1450325327530","20151217_130656","0.47"
"2015/12/17 13:06:56","19","0.162","9.643","4656013","139.898585","patrol02","37.488546","1450325327632","20151217_130656","0.543"
"2015/12/17 13:06:56","19","0.034","9.632","4656014","139.898592","patrol02","37.488533","1450325327731","20151217_130656","0.599"
"2015/12/17 13:06:56","19","0.238","9.557","4656015","139.8986","patrol02","37.488519","1450325327833","20151217_130656","0.537"
"2015/12/17 13:06:56","19","0.302","9.708","4656016","139.898608","patrol02","37.488507","1450325327929","20151217_130656","0.538"
"2015/12/17 13:06:56","19","0.264","9.556","4656017","139.898616","patrol02","37.488494","1450325328030","20151217_130656","0.525"
"2015/12/17 13:06:56","19","0.072","9.596","4656018","139.898624","patrol02","37.48848","1450325328130","20151217_130656","0.357"
"2015/12/17 13:06:56","19","0.131","9.698","4656019","139.898631","patrol02","37.488467","1450325328231","20151217_130656","0.308"
"2015/12/17 13:06:56","19","0.45","9.807","4656020","139.898639","patrol02","37.488455","1450325328329","20151217_130656","0.217"
"2015/12/17 13:06:56","19","0.521","9.606","4656021","139.898646","patrol02","37.488441","1450325328430","20151217_130656","0.367"
"2015/12/17 13:06:56","19","0.287","9.387","4656022","139.898654","patrol02","37.488428","1450325328530","20151217_130656","0.35"
"2015/12/17 13:06:56","19","0.413","9.221","4656023","139.898661","patrol02","37.488415","1450325328631","20151217_130656","0.568"
"2015/12/17 13:06:56","19","0.222","9.614","4656024","139.898668","patrol02","37.488402","1450325328732","20151217_130656","0.57"
"2015/12/17 13:06:56","19","0.22","10.112","4656025","139.898675","patrol02","37.488389","1450325328832","20151217_130656","0.374"
"2015/12/17 13:06:56","19","0.235","10.311","4656026","139.898682","patrol02","37.488376","1450325328933","20151217_130656","0.304"
"2015/12/17 13:06:56","19","0.005","10.03","4656027","139.898689","patrol02","37.488363","1450325329029","20151217_130656","0.498"
"2015/12/17 13:06:56","19","-0.011","9.403","4656028","139.898696","patrol02","37.48835","1450325329129","20151217_130656","0.464"
"2015/12/17 13:06:56","19","0.577","8.96","4656029","139.898703","patrol02","37.488337","1450325329230","20151217_130656","0.546"
"2015/12/17 13:06:56","19","0.386","8.829","4656030","139.89871","patrol02","37.488324","1450325329331","20151217_130656","0.523"
"2015/12/17 13:06:56","23","0.203","9.647","4656031","139.899046","patrol02","37.487749","1450325332433","20151217_130656","0.476"
"2015/12/17 13:06:56","23","0.042","10.068","4656032","139.899053","patrol02","37.487735","1450325332533","20151217_130656","0.483"
"2015/12/17 13:06:56","23","0.03","10.089","4656033","139.89906","patrol02","37.487721","1450325332629","20151217_130656","0.513"
"2015/12/17 13:06:56","23","0.203","9.942","4656034","139.899068","patrol02","37.487707","1450325332730","20151217_130656","0.537"
"2015/12/17 13:06:56","23","0.241","9.767","4656035","139.899075","patrol02","37.487693","1450325332831","20151217_130656","0.603"
"2015/12/17 13:06:56","23","0.212","9.625","4656036","139.899082","patrol02","37.487679","1450325332931","20151217_130656","0.55"
"2015/12/17 13:06:56","23","0.201","9.607","4656037","139.89909","patrol02","37.487664","1450325333032","20151217_130656","0.466"
"2015/12/17 13:06:56","23","0.037","10.046","4656038","139.899097","patrol02","37.48765","1450325333131","20151217_130656","0.539"
"2015/12/17 13:06:56","23","0.001","9.862","4656039","139.899104","patrol02","37.487636","1450325333231","20151217_130656","0.453"
"2015/12/17 13:06:56","23","-0.06","9.977","4656040","139.899112","patrol02","37.487622","1450325333332","20151217_130656","0.5"
"2015/12/17 13:06:56","22","-0.153","9.734","4656041","139.899119","patrol02","37.487608","1450325333430","20151217_130656","0.521"
"2015/12/17 13:06:56","22","-0.012","9.486","4656042","139.899127","patrol02","37.487594","1450325333530","20151217_130656","0.488"
"2015/12/17 13:06:56","22","-0.126","9.264","4656043","139.899135","patrol02","37.487579","1450325333631","20151217_130656","0.564"
"2015/12/17 13:06:56","22","-0.149","9.343","4656044","139.899143","patrol02","37.487565","1450325333732","20151217_130656","0.47"
"2015/12/17 13:06:56","22","-0.054","9.56","4656045","139.899151","patrol02","37.487551","1450325333833","20151217_130656","0.549"
"2015/12/17 13:06:56","22","-0.183","9.744","4656046","139.899158","patrol02","37.487537","1450325333931","20151217_130656","0.576"
"2015/12/17 13:06:56","22","-0.054","9.81","4656047","139.899166","patrol02","37.487523","1450325334029","20151217_130656","0.532"
"2015/12/17 13:06:56","22","0.026","9.703","4656048","139.899174","patrol02","37.487509","1450325334130","20151217_130656","0.584"
"2015/12/17 13:06:56","22","0.169","9.451","4656049","139.899182","patrol02","37.487495","1450325334230","20151217_130656","0.533"
"2015/12/17 13:06:56","22","0.515","9.268","4656050","139.89919","patrol02","37.48748","1450325334331","20151217_130656","0.454"
"2015/12/17 13:06:56","22","0.375","9.528","4656051","139.899198","patrol02","37.487466","1450325334432","20151217_130656","0.523"
"2015/12/17 13:06:56","22","0.303","9.859","4656052","139.899205","patrol02","37.487452","1450325334532","20151217_130656","0.616"
"2015/12/17 13:06:56","22","0.254","10.081","4656053","139.899213","patrol02","37.487438","1450325334633","20151217_130656","0.708"
"2015/12/17 13:06:56","22","0.247","10.074","4656054","139.89922","patrol02","37.487424","1450325334729","20151217_130656","0.809"
"2015/12/17 13:06:56","22","0.363","9.605","4656055","139.899228","patrol02","37.48741","1450325334829","20151217_130656","0.708"
"2015/12/17 13:06:56","22","0.437","9.304","4656056","139.899236","patrol02","37.487396","1450325334930","20151217_130656","0.691"
"2015/12/17 13:06:56","22","0.39","9.227","4656057","139.899243","patrol02","37.487382","1450325335029","20151217_130656","0.616"
"2015/12/17 13:06:56","22","0.376","9.452","4656058","139.899251","patrol02","37.487368","1450325335130","20151217_130656","0.444"
"2015/12/17 13:06:56","22","0.423","9.769","4656059","139.899259","patrol02","37.487354","1450325335232","20151217_130656","0.524"
"2015/12/17 13:06:56","22","0.394","9.909","4656060","139.899266","patrol02","37.487339","1450325335333","20151217_130656","0.516"
"2015/12/17 13:06:56","22","0.593","9.84","4656061","139.899274","patrol02","37.487326","1450325335429","20151217_130656","0.518"
"2015/12/17 13:06:56","22","0.89","9.601","4656062","139.899281","patrol02","37.487312","1450325335529","20151217_130656","0.578"
"2015/12/17 13:06:56","22","0.949","9.334","4656063","139.899289","patrol02","37.487298","1450325335630","20151217_130656","0.524"
"2015/12/17 13:06:56","22","1.052","9.176","4656064","139.899296","patrol02","37.487284","1450325335731","20151217_130656","0.475"
"2015/12/17 13:06:56","22","0.883","9.634","4656065","139.899304","patrol02","37.48727","1450325335832","20151217_130656","0.639"
"2015/12/17 13:06:56","22","0.782","9.901","4656066","139.899311","patrol02","37.487256","1450325335932","20151217_130656","0.506"
"2015/12/17 13:06:56","22","0.883","10.092","4656067","139.899319","patrol02","37.487241","1450325336033","20151217_130656","0.579"
"2015/12/17 13:06:56","22","0.786","9.942","4656068","139.899326","patrol02","37.487228","1450325336129","20151217_130656","0.751"
"2015/12/17 13:06:56","22","0.761","9.511","4656069","139.899334","patrol02","37.487214","1450325336229","20151217_130656","0.658"
"2015/12/17 13:06:56","22","0.984","9.023","4656070","139.899341","patrol02","37.4872","1450325336330","20151217_130656","0.554"
"2015/12/17 13:06:56","21","0.655","9.016","4656071","139.899349","patrol02","37.487186","1450325336431","20151217_130656","0.515"
"2015/12/17 13:06:56","21","0.492","9.438","4656072","139.899357","patrol02","37.487172","1450325336531","20151217_130656","0.475"
"2015/12/17 13:06:56","21","0.362","9.997","4656073","139.899364","patrol02","37.487158","1450325336632","20151217_130656","0.522"
"2015/12/17 13:06:56","21","0.135","10.341","4656074","139.899372","patrol02","37.487144","1450325336733","20151217_130656","0.515"
"2015/12/17 13:06:56","21","0.343","10.178","4656075","139.89938","patrol02","37.48713","1450325336829","20151217_130656","0.344"
"2015/12/17 13:06:56","21","0.601","9.829","4656076","139.899387","patrol02","37.487116","1450325336929","20151217_130656","0.273"
"2015/12/17 13:06:56","21","0.577","9.347","4656077","139.899395","patrol02","37.487102","1450325337030","20151217_130656","0.175"
"2015/12/17 13:06:56","21","0.662","9.28","4656078","139.899403","patrol02","37.487088","1450325337131","20151217_130656","0.178"
"2015/12/17 13:06:56","21","0.643","9.603","4656079","139.899411","patrol02","37.487074","1450325337229","20151217_130656","0.409"
"2015/12/17 13:06:56","21","0.527","9.674","4656080","139.899418","patrol02","37.48706","1450325337332","20151217_130656","0.435"
"2015/12/17 13:06:56","21","0.583","9.862","4656081","139.899426","patrol02","37.487046","1450325337433","20151217_130656","0.577"
"2015/12/17 13:06:56","21","0.452","9.845","4656082","139.899434","patrol02","37.487032","1450325337529","20151217_130656","0.628"
"2015/12/17 13:06:56","21","0.705","9.842","4656083","139.899442","patrol02","37.487017","1450325337629","20151217_130656","0.552"
"2015/12/17 13:06:56","21","0.678","9.669","4656084","139.89945","patrol02","37.487002","1450325337730","20151217_130656","0.474"
"2015/12/17 13:06:56","21","0.73","9.622","4656085","139.899458","patrol02","37.486987","1450325337831","20151217_130656","0.357"
"2015/12/17 13:06:56","21","0.858","9.579","4656086","139.899467","patrol02","37.486972","1450325337931","20151217_130656","0.377"
"2015/12/17 13:06:56","21","0.553","9.535","4656087","139.899475","patrol02","37.486957","1450325338032","20151217_130656","0.256"
"2015/12/17 13:06:56","21","0.5","9.711","4656088","139.899483","patrol02","37.486942","1450325338133","20151217_130656","0.329"
"2015/12/17 13:06:56","21","0.622","9.735","4656089","139.899491","patrol02","37.486927","1450325338233","20151217_130656","0.384"
"2015/12/17 13:06:56","21","0.639","9.636","4656090","139.899499","patrol02","37.486913","1450325338329","20151217_130656","0.438"
"2015/12/17 13:06:56","22","0.493","9.533","4656091","139.899507","patrol02","37.486898","1450325338430","20151217_130656","0.443"
"2015/12/17 13:06:56","22","0.516","9.46","4656092","139.899516","patrol02","37.486883","1450325338530","20151217_130656","0.526"
"2015/12/17 13:06:56","22","0.696","9.478","4656093","139.899524","patrol02","37.486868","1450325338631","20151217_130656","0.462"
"2015/12/17 13:06:56","22","0.613","9.647","4656094","139.899533","patrol02","37.486853","1450325338732","20151217_130656","0.595"
"2015/12/17 13:06:56","22","0.658","9.963","4656095","139.899541","patrol02","37.486838","1450325338833","20151217_130656","0.633"
"2015/12/17 13:06:56","22","0.598","10.12","4656096","139.89955","patrol02","37.486823","1450325338933","20151217_130656","0.655"
"2015/12/17 13:06:56","22","0.739","9.884","4656097","139.899558","patrol02","37.486809","1450325339029","20151217_130656","0.631"
"2015/12/17 13:06:56","22","0.715","9.582","4656098","139.899567","patrol02","37.486794","1450325339130","20151217_130656","0.6"
"2015/12/17 13:06:56","22","0.7","9.396","4656099","139.899575","patrol02","37.486779","1450325339231","20151217_130656","0.6"
"2015/12/17 13:06:56","22","0.644","9.517","4656100","139.899584","patrol02","37.486764","1450325339331","20151217_130656","0.517"
"2015/12/17 13:06:56","22","0.554","9.846","4656101","139.899592","patrol02","37.486749","1450325339432","20151217_130656","0.492"
"2015/12/17 13:06:56","22","0.467","9.88","4656102","139.899601","patrol02","37.486734","1450325339533","20151217_130656","0.478"
"2015/12/17 13:06:56","22","0.309","10.369","4656103","139.89961","patrol02","37.486719","1450325339633","20151217_130656","0.814"
"2015/12/17 13:06:56","22","0.379","9.903","4656104","139.899618","patrol02","37.486705","1450325339729","20151217_130656","0.674"
"2015/12/17 13:06:56","22","0.616","9.473","4656105","139.899627","patrol02","37.48669","1450325339830","20151217_130656","0.741"
"2015/12/17 13:06:56","22","0.284","9.237","4656106","139.899635","patrol02","37.486675","1450325339930","20151217_130656","0.94"
"2015/12/17 13:06:56","22","0.218","9.202","4656107","139.899644","patrol02","37.48666","1450325340031","20151217_130656","0.527"
"2015/12/17 13:06:56","22","0.485","9.748","4656108","139.899653","patrol02","37.486645","1450325340132","20151217_130656","0.339"
"2015/12/17 13:06:56","22","0.072","10.067","4656109","139.899661","patrol02","37.48663","1450325340233","20151217_130656","0.35"
"2015/12/17 13:06:56","22","0.208","10.094","4656110","139.89967","patrol02","37.486615","1450325340333","20151217_130656","0.332"
"2015/12/17 13:06:56","22","0.312","9.311","4656111","139.899678","patrol02","37.486601","1450325340429","20151217_130656","0.362"
"2015/12/17 13:06:56","22","0.242","9.06","4656112","139.899686","patrol02","37.486586","1450325340530","20151217_130656","0.33"
"2015/12/17 13:06:56","22","0.16","9.379","4656113","139.899695","patrol02","37.486572","1450325340630","20151217_130656","0.302"
"2015/12/17 13:06:56","22","0.264","9.752","4656114","139.899703","patrol02","37.486557","1450325340731","20151217_130656","0.467"
"2015/12/17 13:06:56","22","0.136","10.428","4656115","139.899712","patrol02","37.486543","1450325340832","20151217_130656","0.846"
"2015/12/17 13:06:56","22","-0.092","10.444","4656116","139.89972","patrol02","37.486528","1450325340932","20151217_130656","0.962"
"2015/12/17 13:06:56","22","0.262","9.792","4656117","139.899729","patrol02","37.486513","1450325341033","20151217_130656","0.768"
"2015/12/17 13:06:56","22","0.321","9.183","4656118","139.899737","patrol02","37.4865","1450325341129","20151217_130656","0.693"
"2015/12/17 13:06:56","22","0.151","9.004","4656119","139.899745","patrol02","37.486484","1450325341235","20151217_130656","0.637"
"2015/12/17 13:06:56","22","0.291","8.954","4656120","139.899754","patrol02","37.48647","1450325341330","20151217_130656","0.487"
"2015/12/17 13:06:56","20","0.139","9.523","4656121","139.899762","patrol02","37.486456","1450325341429","20151217_130656","0.762"
"2015/12/17 13:06:56","20","-0.212","10.072","4656122","139.89977","patrol02","37.486442","1450325341532","20151217_130656","0.891"
"2015/12/17 13:06:56","20","-0.146","10.11","4656123","139.899778","patrol02","37.486428","1450325341631","20151217_130656","0.86"
"2015/12/17 13:06:56","20","-0.213","9.988","4656124","139.899786","patrol02","37.486413","1450325341733","20151217_130656","1.03"
"2015/12/17 13:06:56","20","0.014","9.728","4656125","139.899794","patrol02","37.486399","1450325341829","20151217_130656","0.961"
"2015/12/17 13:06:56","20","0.056","9.868","4656126","139.899802","patrol02","37.486385","1450325341929","20151217_130656","0.866"
"2015/12/17 13:06:56","20","0.322","9.793","4656127","139.89981","patrol02","37.486371","1450325342030","20151217_130656","0.455"
"2015/12/17 13:06:56","20","0.18","9.67","4656128","139.899818","patrol02","37.486356","1450325342131","20151217_130656","0.561"
"2015/12/17 13:06:56","20","0.118","9.936","4656129","139.899826","patrol02","37.486342","1450325342232","20151217_130656","0.235"
"2015/12/17 13:06:56","20","0.527","9.355","4656130","139.899834","patrol02","37.486328","1450325342332","20151217_130656","-0.279"
"2015/12/17 13:06:56","20","0.319","9.523","4656131","139.899842","patrol02","37.486313","1450325342433","20151217_130656","0.075"
"2015/12/17 13:06:56","20","0.249","9.822","4656132","139.89985","patrol02","37.4863","1450325342529","20151217_130656","0.317"
"2015/12/17 13:06:56","20","0.137","9.969","4656133","139.899858","patrol02","37.486286","1450325342629","20151217_130656","0.282"
"2015/12/17 13:06:56","20","0.26","10.229","4656134","139.899866","patrol02","37.486273","1450325342730","20151217_130656","0.622"
"2015/12/17 13:06:56","20","0.069","10.123","4656135","139.899874","patrol02","37.486259","1450325342831","20151217_130656","0.883"
"2015/12/17 13:06:56","20","0.311","9.618","4656136","139.899883","patrol02","37.486245","1450325342931","20151217_130656","0.682"
"2015/12/17 13:06:56","20","0.446","8.933","4656137","139.899891","patrol02","37.486231","1450325343032","20151217_130656","0.672"
"2015/12/17 13:06:56","20","0.142","8.669","4656138","139.899899","patrol02","37.486217","1450325343133","20151217_130656","0.66"
"2015/12/17 13:06:56","20","0.134","9.279","4656139","139.899907","patrol02","37.486204","1450325343229","20151217_130656","0.525"
"2015/12/17 13:06:56","20","0.253","10.131","4656140","139.899915","patrol02","37.48619","1450325343329","20151217_130656","0.419"
"2015/12/17 13:06:56","19","0.501","10.223","4656141","139.899923","patrol02","37.486176","1450325343430","20151217_130656","0.307"
"2015/12/17 13:06:56","19","-0.049","10.088","4656142","139.899931","patrol02","37.486162","1450325343531","20151217_130656","0.361"
"2015/12/17 13:06:56","19","-0.358","9.911","4656143","139.899939","patrol02","37.486148","1450325343631","20151217_130656","0.26"
"2015/12/17 13:06:56","19","0.585","9.537","4656144","139.899947","patrol02","37.486134","1450325343732","20151217_130656","0.289"
"2015/12/17 13:06:56","19","0.392","9.294","4656145","139.899955","patrol02","37.48612","1450325343833","20151217_130656","0.681"
"2015/12/17 13:06:56","19","0.187","9.206","4656146","139.899963","patrol02","37.486106","1450325343929","20151217_130656","0.677"
"2015/12/17 13:06:56","19","0.379","9.233","4656147","139.899971","patrol02","37.486092","1450325344029","20151217_130656","0.563"
"2015/12/17 13:06:56","19","0.185","9.384","4656148","139.89998","patrol02","37.486078","1450325344130","20151217_130656","0.446"
"2015/12/17 13:06:56","19","0.17","9.792","4656149","139.899988","patrol02","37.486064","1450325344231","20151217_130656","0.4"
"2015/12/17 13:06:56","19","0.469","10.016","4656150","139.899996","patrol02","37.48605","1450325344331","20151217_130656","0.384"
"2015/12/17 13:06:56","20","0.205","10.201","4656151","139.900004","patrol02","37.486036","1450325344432","20151217_130656","0.574"
"2015/12/17 13:06:56","20","-0.236","10.397","4656152","139.900012","patrol02","37.486022","1450325344533","20151217_130656","0.638"
"2015/12/17 13:06:56","20","-0.041","9.875","4656153","139.90002","patrol02","37.48601","1450325344629","20151217_130656","0.402"
"2015/12/17 13:06:56","20","-0.054","9.544","4656154","139.900029","patrol02","37.485996","1450325344729","20151217_130656","0.388"
"2015/12/17 13:06:56","20","0.295","8.724","4656155","139.900037","patrol02","37.485982","1450325344830","20151217_130656","0.125"
"2015/12/17 13:06:56","20","0.61","8.758","4656156","139.900045","patrol02","37.485969","1450325344931","20151217_130656","-0.088"
"2015/12/17 13:06:56","20","0.287","9.634","4656157","139.900054","patrol02","37.485955","1450325345031","20151217_130656","0.191"
"2015/12/17 13:06:56","20","-0.155","10.361","4656158","139.900062","patrol02","37.485942","1450325345132","20151217_130656","0.124"
"2015/12/17 13:06:56","20","0.293","10.438","4656159","139.90007","patrol02","37.485928","1450325345233","20151217_130656","0.41"
"2015/12/17 13:06:56","20","0.166","10.076","4656160","139.900079","patrol02","37.485915","1450325345333","20151217_130656","0.711"
"2015/12/17 13:06:56","20","0.315","9.574","4656161","139.900087","patrol02","37.485902","1450325345429","20151217_130656","0.828"
"2015/12/17 13:06:56","18","0.791","9.249","4656162","139.900095","patrol02","37.485888","1450325345530","20151217_130656","0.692"
"2015/12/17 13:06:56","18","0.484","9.258","4656163","139.900102","patrol02","37.485874","1450325345631","20151217_130656","0.602"
"2015/12/17 13:06:56","18","0.129","9.585","4656164","139.90011","patrol02","37.485859","1450325345731","20151217_130656","0.634"
"2015/12/17 13:06:56","18","0.103","9.849","4656165","139.900118","patrol02","37.485845","1450325345832","20151217_130656","0.702"
"2015/12/17 13:06:56","18","0.102","9.84","4656166","139.900126","patrol02","37.485831","1450325345933","20151217_130656","0.676"
"2015/12/17 13:06:56","18","0.244","9.674","4656167","139.900134","patrol02","37.485817","1450325346033","20151217_130656","0.61"
"2015/12/17 13:06:56","18","0.45","9.551","4656168","139.900142","patrol02","37.485804","1450325346129","20151217_130656","0.61"
"2015/12/17 13:06:56","18","0.552","9.702","4656169","139.90015","patrol02","37.48579","1450325346230","20151217_130656","0.669"
"2015/12/17 13:06:56","18","0.288","9.764","4656170","139.900158","patrol02","37.485776","1450325346330","20151217_130656","0.615"
"2015/12/17 13:06:56","18","0.068","9.674","4656171","139.900166","patrol02","37.485762","1450325346431","20151217_130656","0.649"
"2015/12/17 13:06:56","17","-0.174","9.55","4656172","139.900173","patrol02","37.485748","1450325346532","20151217_130656","0.674"
"2015/12/17 13:06:56","17","-0.256","9.46","4656173","139.900181","patrol02","37.485734","1450325346633","20151217_130656","0.637"
"2015/12/17 13:06:56","17","0.047","9.463","4656174","139.900189","patrol02","37.48572","1450325346733","20151217_130656","0.5"
"2015/12/17 13:06:56","17","0.24","9.515","4656175","139.900197","patrol02","37.485707","1450325346829","20151217_130656","0.475"
"2015/12/17 13:06:56","17","0.424","9.676","4656176","139.900205","patrol02","37.485693","1450325346930","20151217_130656","0.478"
"2015/12/17 13:06:56","17","0.546","9.88","4656177","139.900212","patrol02","37.485679","1450325347030","20151217_130656","0.494"
"2015/12/17 13:06:56","17","0.604","10.109","4656178","139.90022","patrol02","37.485665","1450325347131","20151217_130656","0.495"
"2015/12/17 13:06:56","17","0.365","9.956","4656179","139.900228","patrol02","37.485651","1450325347232","20151217_130656","0.582"
"2015/12/17 13:06:56","17","0.322","9.716","4656180","139.900236","patrol02","37.485637","1450325347332","20151217_130656","0.474"
"2015/12/17 13:06:56","16","0.274","9.397","4656181","139.900244","patrol02","37.485623","1450325347433","20151217_130656","0.415"
"2015/12/17 13:06:56","16","0.003","9.328","4656182","139.900251","patrol02","37.48561","1450325347529","20151217_130656","0.451"
"2015/12/17 13:06:56","16","-0.163","9.584","4656183","139.900259","patrol02","37.485597","1450325347630","20151217_130656","0.46"
"2015/12/17 13:06:56","16","-0.243","9.831","4656184","139.900267","patrol02","37.485584","1450325347730","20151217_130656","0.45"
"2015/12/17 13:06:56","16","0.215","9.906","4656185","139.900275","patrol02","37.485571","1450325347832","20151217_130656","0.5"
"2015/12/17 13:06:56","16","0.23","9.757","4656186","139.900283","patrol02","37.485558","1450325347932","20151217_130656","0.513"
"2015/12/17 13:06:56","16","0.46","9.538","4656187","139.900291","patrol02","37.485545","1450325348033","20151217_130656","0.49"
"2015/12/17 13:06:56","16","0.63","9.384","4656188","139.900299","patrol02","37.485531","1450325348134","20151217_130656","0.503"
"2015/12/17 13:06:56","16","0.422","9.265","4656189","139.900306","patrol02","37.485519","1450325348229","20151217_130656","0.552"
"2015/12/17 13:06:56","16","0.286","9.388","4656190","139.900314","patrol02","37.485506","1450325348330","20151217_130656","0.587"
"2015/12/17 13:06:56","16","0.039","9.593","4656191","139.900322","patrol02","37.485493","1450325348430","20151217_130656","0.624"
"2015/12/17 13:06:56","14","-0.06","9.786","4656192","139.90033","patrol02","37.485479","1450325348531","20151217_130656","0.537"
"2015/12/17 13:06:56","14","-0.145","9.849","4656193","139.900338","patrol02","37.485465","1450325348632","20151217_130656","0.593"
"2015/12/17 13:06:56","14","-0.082","9.863","4656194","139.900346","patrol02","37.485451","1450325348732","20151217_130656","0.624"
"2015/12/17 13:06:56","14","-0.056","9.622","4656195","139.900354","patrol02","37.485437","1450325348833","20151217_130656","0.599"
"2015/12/17 13:06:56","14","-0.005","9.515","4656196","139.900361","patrol02","37.485423","1450325348929","20151217_130656","0.629"
"2015/12/17 13:06:56","14","-0.125","9.484","4656197","139.900369","patrol02","37.485409","1450325349029","20151217_130656","0.612"
"2015/12/17 13:06:56","14","-0.048","9.564","4656198","139.900377","patrol02","37.485395","1450325349130","20151217_130656","0.693"
"2015/12/17 13:06:56","14","-0.12","9.689","4656199","139.900385","patrol02","37.485381","1450325349231","20151217_130656","0.732"
"2015/12/17 13:06:56","14","-0.111","9.749","4656200","139.900393","patrol02","37.485367","1450325349332","20151217_130656","0.777"
"2015/12/17 13:06:56","15","0.028","9.79","4656201","139.900401","patrol02","37.485353","1450325349432","20151217_130656","0.783"
"2015/12/17 13:06:56","15","0.067","9.81","4656202","139.900408","patrol02","37.48534","1450325349533","20151217_130656","0.714"
"2015/12/17 13:06:56","15","0.022","9.834","4656203","139.900415","patrol02","37.485328","1450325349629","20151217_130656","0.735"
"2015/12/17 13:06:56","15","-0.146","9.74","4656204","139.900422","patrol02","37.485316","1450325349729","20151217_130656","0.699"
"2015/12/17 13:06:56","15","-0.167","9.648","4656205","139.90043","patrol02","37.485303","1450325349830","20151217_130656","0.616"
"2015/12/17 13:06:56","15","-0.116","9.708","4656206","139.900437","patrol02","37.48529","1450325349931","20151217_130656","0.547"
"2015/12/17 13:06:56","15","-0.069","9.728","4656207","139.900444","patrol02","37.485278","1450325350031","20151217_130656","0.498"
"2015/12/17 13:06:56","15","-0.176","9.689","4656208","139.900451","patrol02","37.485265","1450325350132","20151217_130656","0.492"
"2015/12/17 13:06:56","15","-0.124","9.724","4656209","139.900459","patrol02","37.485252","1450325350233","20151217_130656","0.489"
"2015/12/17 13:06:56","15","0.041","9.679","4656210","139.900466","patrol02","37.48524","1450325350333","20151217_130656","0.501"
"2015/12/17 13:06:56","15","-0.037","9.43","4656211","139.900473","patrol02","37.485228","1450325350429","20151217_130656","0.579"
"2015/12/17 13:06:56","13","-0.081","9.295","4656212","139.90048","patrol02","37.485215","1450325350530","20151217_130656","0.578"
"2015/12/17 13:06:56","13","-0.185","9.409","4656213","139.900487","patrol02","37.485202","1450325350631","20151217_130656","0.55"
"2015/12/17 13:06:56","13","-0.077","9.629","4656214","139.900493","patrol02","37.48519","1450325350731","20151217_130656","0.545"
"2015/12/17 13:06:56","13","0.018","9.616","4656215","139.9005","patrol02","37.485177","1450325350832","20151217_130656","0.549"
"2015/12/17 13:06:56","13","0.264","9.58","4656216","139.900507","patrol02","37.485164","1450325350933","20151217_130656","0.532"
"2015/12/17 13:06:56","13","0.358","9.616","4656217","139.900514","patrol02","37.485152","1450325351034","20151217_130656","0.527"
"2015/12/17 13:06:56","13","0.463","9.69","4656218","139.900521","patrol02","37.48514","1450325351129","20151217_130656","0.458"
"2015/12/17 13:06:56","13","0.423","9.765","4656219","139.900528","patrol02","37.485127","1450325351231","20151217_130656","0.534"
"2015/12/17 13:06:56","13","0.448","9.647","4656220","139.900535","patrol02","37.485114","1450325351331","20151217_130656","0.418"
"2015/12/17 13:06:56","13","0.421","9.602","4656221","139.900542","patrol02","37.485102","1450325351431","20151217_130656","0.468"
"2015/12/17 13:06:56","12","0.049","9.719","4656222","139.900549","patrol02","37.485089","1450325351532","20151217_130656","0.424"
"2015/12/17 13:06:56","12","0.191","9.911","4656223","139.900556","patrol02","37.485076","1450325351633","20151217_130656","0.322"
"2015/12/17 13:06:56","12","0.331","9.868","4656224","139.900564","patrol02","37.485063","1450325351733","20151217_130656","0.396"
"2015/12/17 13:06:56","12","0.186","9.766","4656225","139.900571","patrol02","37.485051","1450325351829","20151217_130656","0.417"
"2015/12/17 13:06:56","12","0.195","9.552","4656226","139.900578","patrol02","37.485038","1450325351930","20151217_130656","0.275"
"2015/12/17 13:06:56","12","0.433","9.473","4656227","139.900586","patrol02","37.485025","1450325352030","20151217_130656","0.246"
"2015/12/17 13:06:56","12","0.181","9.398","4656228","139.900593","patrol02","37.485012","1450325352131","20151217_130656","0.267"
"2015/12/17 13:06:56","12","0.144","9.561","4656229","139.9006","patrol02","37.484999","1450325352232","20151217_130656","0.279"
"2015/12/17 13:06:56","12","0.151","9.742","4656230","139.900608","patrol02","37.484986","1450325352333","20151217_130656","0.36"
"2015/12/17 13:06:56","12","0.001","9.819","4656231","139.900615","patrol02","37.484973","1450325352433","20151217_130656","0.419"
"2015/12/17 13:06:56","12","0.029","9.803","4656232","139.900621","patrol02","37.484962","1450325352529","20151217_130656","0.412"
"2015/12/17 13:06:56","12","0.105","9.618","4656233","139.900628","patrol02","37.48495","1450325352630","20151217_130656","0.489"
"2015/12/17 13:06:56","12","-0.063","9.411","4656234","139.900635","patrol02","37.484938","1450325352730","20151217_130656","0.479"
"2015/12/17 13:06:56","12","-0.079","9.355","4656235","139.900642","patrol02","37.484926","1450325352831","20151217_130656","0.459"
"2015/12/17 13:06:56","12","-0.032","9.596","4656236","139.900648","patrol02","37.484914","1450325352932","20151217_130656","0.515"
"2015/12/17 13:06:56","12","-0.056","9.887","4656237","139.900655","patrol02","37.484902","1450325353032","20151217_130656","0.528"
"2015/12/17 13:06:56","12","-0.199","9.804","4656238","139.900662","patrol02","37.484891","1450325353133","20151217_130656","0.529"
"2015/12/17 13:06:56","12","-0.275","9.635","4656239","139.900668","patrol02","37.484879","1450325353229","20151217_130656","0.537"
"2015/12/17 13:06:56","12","-0.172","9.481","4656240","139.900675","patrol02","37.484867","1450325353330","20151217_130656","0.457"
"2015/12/17 13:06:56","12","0.026","9.583","4656241","139.900682","patrol02","37.484856","1450325353430","20151217_130656","0.326"
"2015/12/17 13:06:56","10","0.013","9.729","4656242","139.900689","patrol02","37.484843","1450325353531","20151217_130656","0.317"
"2015/12/17 13:06:56","10","-0.196","9.754","4656243","139.900697","patrol02","37.48483","1450325353632","20151217_130656","0.383"
"2015/12/17 13:06:56","10","-0.159","9.675","4656244","139.900704","patrol02","37.484817","1450325353732","20151217_130656","0.411"
"2015/12/17 13:06:56","10","-0.124","9.577","4656245","139.900712","patrol02","37.484804","1450325353833","20151217_130656","0.448"
"2015/12/17 13:06:56","10","-0.066","9.308","4656246","139.900719","patrol02","37.484792","1450325353929","20151217_130656","0.5"
"2015/12/17 13:06:56","10","-0.123","9.206","4656247","139.900726","patrol02","37.484779","1450325354030","20151217_130656","0.453"
"2015/12/17 13:06:56","10","-0.138","9.486","4656248","139.900734","patrol02","37.484766","1450325354130","20151217_130656","0.434"
"2015/12/17 13:06:56","10","-0.057","9.887","4656249","139.900741","patrol02","37.484754","1450325354231","20151217_130656","0.44"
"2015/12/17 13:06:56","10","-0.094","10.068","4656250","139.900749","patrol02","37.484741","1450325354332","20151217_130656","0.443"
"2015/12/17 13:06:56","12","-0.357","10.027","4656251","139.900756","patrol02","37.484728","1450325354432","20151217_130656","0.454"
"2015/12/17 13:06:56","12","-0.241","9.816","4656252","139.900763","patrol02","37.484716","1450325354533","20151217_130656","0.407"
"2015/12/17 13:06:56","12","-0.335","9.422","4656253","139.900771","patrol02","37.484704","1450325354629","20151217_130656","0.433"
"2015/12/17 13:06:56","12","-0.075","9.242","4656254","139.900778","patrol02","37.484692","1450325354729","20151217_130656","0.458"
"2015/12/17 13:06:56","12","-0.132","9.256","4656255","139.900785","patrol02","37.48468","1450325354830","20151217_130656","0.387"
"2015/12/17 13:06:56","12","-0.275","9.477","4656256","139.900793","patrol02","37.484668","1450325354931","20151217_130656","0.35"
"2015/12/17 13:06:56","12","-0.189","9.993","4656257","139.9008","patrol02","37.484656","1450325355032","20151217_130656","0.356"
"2015/12/17 13:06:56","12","-0.313","10.092","4656258","139.900808","patrol02","37.484643","1450325355132","20151217_130656","0.319"
"2015/12/17 13:06:56","12","-0.177","9.936","4656259","139.900815","patrol02","37.484631","1450325355233","20151217_130656","0.333"
"2015/12/17 13:06:56","12","-0.063","9.717","4656260","139.900823","patrol02","37.484619","1450325355334","20151217_130656","0.365"
"2015/12/17 13:06:56","12","-0.152","9.506","4656261","139.90083","patrol02","37.484608","1450325355429","20151217_130656","0.339"
"2015/12/17 13:06:56","11","-0.06","9.423","4656262","139.900837","patrol02","37.484596","1450325355535","20151217_130656","0.429"
"2015/12/17 13:06:56","11","-0.193","9.488","4656263","139.900843","patrol02","37.484585","1450325355631","20151217_130656","0.505"
"2015/12/17 13:06:56","11","-0.411","9.681","4656264","139.900849","patrol02","37.484574","1450325355730","20151217_130656","0.441"
"2015/12/17 13:06:56","11","-0.302","9.819","4656265","139.900856","patrol02","37.484563","1450325355832","20151217_130656","0.448"
"2015/12/17 13:06:56","11","-0.214","9.772","4656266","139.900862","patrol02","37.484551","1450325355931","20151217_130656","0.523"
"2015/12/17 13:06:56","11","-0.29","9.807","4656267","139.900869","patrol02","37.484541","1450325356029","20151217_130656","0.464"
"2015/12/17 13:06:56","11","-0.034","9.683","4656268","139.900875","patrol02","37.484529","1450325356129","20151217_130656","0.509"
"2015/12/17 13:06:56","11","0.054","9.5","4656269","139.900882","patrol02","37.484518","1450325356230","20151217_130656","0.501"
"2015/12/17 13:06:56","11","-0.036","9.378","4656270","139.900888","patrol02","37.484507","1450325356331","20151217_130656","0.474"
"2015/12/17 13:06:56","11","-0.162","9.457","4656271","139.900895","patrol02","37.484496","1450325356431","20151217_130656","0.399"
"2015/12/17 13:06:56","9","-0.113","9.624","4656272","139.9009","patrol02","37.484484","1450325356532","20151217_130656","0.387"
"2015/12/17 13:06:56","9","-0.053","9.879","4656273","139.900906","patrol02","37.484473","1450325356633","20151217_130656","0.379"
"2015/12/17 13:06:56","9","0.017","9.986","4656274","139.900912","patrol02","37.484463","1450325356729","20151217_130656","0.4"
"2015/12/17 13:06:56","9","0.095","9.863","4656275","139.900917","patrol02","37.484452","1450325356829","20151217_130656","0.429"
"2015/12/17 13:06:56","9","0.271","9.432","4656276","139.900923","patrol02","37.484441","1450325356930","20151217_130656","0.449"
"2015/12/17 13:06:56","9","0.318","9.276","4656277","139.900929","patrol02","37.484429","1450325357031","20151217_130656","0.481"
"2015/12/17 13:06:56","9","0.18","9.224","4656278","139.900935","patrol02","37.484418","1450325357131","20151217_130656","0.446"
"2015/12/17 13:06:56","9","0.117","9.575","4656279","139.90094","patrol02","37.484407","1450325357232","20151217_130656","0.396"
"2015/12/17 13:06:56","9","0.076","10.016","4656280","139.900946","patrol02","37.484396","1450325357333","20151217_130656","0.517"
"2015/12/17 13:06:56","9","0.327","10.014","4656281","139.900952","patrol02","37.484385","1450325357433","20151217_130656","0.444"
"2015/12/17 13:06:56","9","0.261","9.846","4656282","139.900958","patrol02","37.484374","1450325357529","20151217_130656","0.516"
"2015/12/17 13:06:56","9","0.288","9.644","4656283","139.900964","patrol02","37.484363","1450325357630","20151217_130656","0.489"
"2015/12/17 13:06:56","9","0.427","9.536","4656284","139.90097","patrol02","37.484352","1450325357730","20151217_130656","0.457"
"2015/12/17 13:06:56","9","0.34","9.522","4656285","139.900976","patrol02","37.484341","1450325357831","20151217_130656","0.454"
"2015/12/17 13:06:56","9","0.192","9.659","4656286","139.900982","patrol02","37.484329","1450325357932","20151217_130656","0.439"
"2015/12/17 13:06:56","9","0.147","9.74","4656287","139.900988","patrol02","37.484318","1450325358033","20151217_130656","0.371"
"2015/12/17 13:06:56","9","0.352","9.691","4656288","139.900995","patrol02","37.484307","1450325358133","20151217_130656","0.444"
"2015/12/17 13:06:56","9","0.3","9.428","4656289","139.901","patrol02","37.484296","1450325358229","20151217_130656","0.387"
"2015/12/17 13:06:56","9","0.374","9.401","4656290","139.901007","patrol02","37.484285","1450325358330","20151217_130656","0.36"
"2015/12/17 13:06:56","9","0.574","9.457","4656291","139.901013","patrol02","37.484274","1450325358430","20151217_130656","0.314"
"2015/12/17 13:06:56","9","0.551","9.806","4656292","139.901019","patrol02","37.484262","1450325358531","20151217_130656","0.369"
"2015/12/17 13:06:56","9","0.443","9.806","4656293","139.901025","patrol02","37.484251","1450325358632","20151217_130656","0.264"
"2015/12/17 13:06:56","9","0.469","9.979","4656294","139.901031","patrol02","37.48424","1450325358733","20151217_130656","0.352"
"2015/12/17 13:06:56","9","0.323","10.155","4656295","139.901037","patrol02","37.484229","1450325358833","20151217_130656","0.629"
"2015/12/17 13:06:56","9","0.345","10.185","4656296","139.901042","patrol02","37.484218","1450325358929","20151217_130656","0.707"
"2015/12/17 13:06:56","9","0.494","9.458","4656297","139.901048","patrol02","37.484207","1450325359030","20151217_130656","0.415"
"2015/12/17 13:06:56","9","0.557","8.871","4656298","139.901054","patrol02","37.484196","1450325359130","20151217_130656","0.517"
"2015/12/17 13:06:56","9","0.317","8.778","4656299","139.90106","patrol02","37.484184","1450325359231","20151217_130656","0.592"
"2015/12/17 13:06:56","9","0.307","9.149","4656300","139.901066","patrol02","37.484173","1450325359332","20151217_130656","0.243"
"2015/12/17 13:06:56","8","0.279","10.022","4656301","139.901072","patrol02","37.484162","1450325359433","20151217_130656","0.273"
"2015/12/17 13:06:56","8","-0.111","10.347","4656302","139.901078","patrol02","37.484151","1450325359533","20151217_130656","0.203"
"2015/12/17 13:06:56","8","0.073","10.129","4656303","139.901084","patrol02","37.484141","1450325359629","20151217_130656","0.292"
"2015/12/17 13:06:56","8","0.227","9.531","4656304","139.90109","patrol02","37.48413","1450325359730","20151217_130656","0.474"
"2015/12/17 13:06:56","8","0.329","9.128","4656305","139.901096","patrol02","37.48412","1450325359830","20151217_130656","0.478"
"2015/12/17 13:06:56","8","0.319","9.222","4656306","139.901102","patrol02","37.484109","1450325359931","20151217_130656","0.457"
"2015/12/17 13:06:56","8","0.336","9.497","4656307","139.901108","patrol02","37.484098","1450325360032","20151217_130656","0.473"
"2015/12/17 13:06:56","8","0.165","9.621","4656308","139.901115","patrol02","37.484087","1450325360132","20151217_130656","0.5"
"2015/12/17 13:06:56","8","-0.086","9.761","4656309","139.901121","patrol02","37.484077","1450325360233","20151217_130656","0.451"
"2015/12/17 13:06:56","8","-0.139","9.71","4656310","139.901127","patrol02","37.484066","1450325360329","20151217_130656","0.448"
"2015/12/17 13:06:56","8","-0.012","9.597","4656311","139.901133","patrol02","37.484056","1450325360430","20151217_130656","0.415"
"2015/12/17 13:06:56","8","-0.108","9.548","4656312","139.901139","patrol02","37.484045","1450325360530","20151217_130656","0.427"
"2015/12/17 13:06:56","8","0.071","9.387","4656313","139.901145","patrol02","37.484035","1450325360631","20151217_130656","0.443"
"2015/12/17 13:06:56","8","0.171","9.414","4656314","139.901151","patrol02","37.484025","1450325360732","20151217_130656","0.382"
"2015/12/17 13:06:56","8","0.106","9.643","4656315","139.901157","patrol02","37.484015","1450325360832","20151217_130656","0.396"
"2015/12/17 13:06:56","8","0.111","9.916","4656316","139.901163","patrol02","37.484005","1450325360933","20151217_130656","0.437"
"2015/12/17 13:06:56","8","-0.007","9.882","4656317","139.901169","patrol02","37.483995","1450325361029","20151217_130656","0.419"
"2015/12/17 13:06:56","8","-0.183","9.993","4656318","139.901175","patrol02","37.483985","1450325361129","20151217_130656","0.468"
"2015/12/17 13:06:56","8","0.022","9.624","4656319","139.901181","patrol02","37.483974","1450325361230","20151217_130656","0.519"
"2015/12/17 13:06:56","8","0.118","9.378","4656320","139.901187","patrol02","37.483964","1450325361331","20151217_130656","0.596"
"2015/12/17 13:06:56","6","-0.129","9.323","4656321","139.901193","patrol02","37.483954","1450325361432","20151217_130656","0.627"
"2015/12/17 13:06:56","6","0.025","9.455","4656322","139.901199","patrol02","37.483943","1450325361532","20151217_130656","0.398"
"2015/12/17 13:06:56","6","-0.002","9.611","4656323","139.901205","patrol02","37.483932","1450325361633","20151217_130656","0.432"
"2015/12/17 13:06:56","6","-0.3","9.733","4656324","139.90121","patrol02","37.483921","1450325361729","20151217_130656","0.391"
"2015/12/17 13:06:56","6","-0.147","9.8","4656325","139.901216","patrol02","37.48391","1450325361829","20151217_130656","0.288"
"2015/12/17 13:06:56","6","0.062","9.861","4656326","139.901222","patrol02","37.483899","1450325361930","20151217_130656","0.388"
"2015/12/17 13:06:56","6","-0.059","9.635","4656327","139.901228","patrol02","37.483888","1450325362031","20151217_130656","0.455"
"2015/12/17 13:06:56","6","-0.061","9.463","4656328","139.901234","patrol02","37.483877","1450325362132","20151217_130656","0.484"
"2015/12/17 13:06:56","6","-0.059","9.409","4656329","139.90124","patrol02","37.483866","1450325362232","20151217_130656","0.504"
"2015/12/17 13:06:56","6","-0.179","9.621","4656330","139.901246","patrol02","37.483855","1450325362333","20151217_130656","0.585"
"2015/12/17 13:06:56","6","-0.276","9.943","4656331","139.901252","patrol02","37.483845","1450325362429","20151217_130656","0.559"
"2015/12/17 13:06:56","7","-0.087","9.977","4656332","139.901257","patrol02","37.483835","1450325362529","20151217_130656","0.519"
"2015/12/17 13:06:56","7","-0.3","9.573","4656333","139.901262","patrol02","37.483825","1450325362630","20151217_130656","0.409"
"2015/12/17 13:06:56","7","-0.111","9.252","4656334","139.901267","patrol02","37.483816","1450325362731","20151217_130656","0.27"
"2015/12/17 13:06:56","7","0.026","8.965","4656335","139.901272","patrol02","37.483806","1450325362831","20151217_130656","0.459"
"2015/12/17 13:06:56","7","-0.092","9.634","4656336","139.901277","patrol02","37.483797","1450325362932","20151217_130656","0.65"
"2015/12/17 13:06:56","7","-0.322","10.217","4656337","139.901282","patrol02","37.483787","1450325363033","20151217_130656","0.459"
"2015/12/17 13:06:56","7","-0.03","10.271","4656338","139.901288","patrol02","37.483778","1450325363134","20151217_130656","0.403"
"2015/12/17 13:06:56","7","0.132","9.839","4656339","139.901292","patrol02","37.483769","1450325363229","20151217_130656","0.708"
"2015/12/17 13:06:56","7","-0.141","9.311","4656340","139.901298","patrol02","37.483759","1450325363330","20151217_130656","0.551"
"2015/12/17 13:06:56","7","0.03","9.252","4656341","139.901303","patrol02","37.483749","1450325363431","20151217_130656","0.352"
"2015/12/17 13:06:56","5","0.093","9.671","4656342","139.901308","patrol02","37.48374","1450325363531","20151217_130656","0.342"
"2015/12/17 13:06:56","5","-0.127","10.052","4656343","139.901314","patrol02","37.48373","1450325363632","20151217_130656","0.36"
"2015/12/17 13:06:56","5","0.019","10.036","4656344","139.901319","patrol02","37.48372","1450325363733","20151217_130656","0.45"
"2015/12/17 13:06:56","5","0.247","9.692","4656345","139.901325","patrol02","37.483711","1450325363834","20151217_130656","0.533"
"2015/12/17 13:06:56","5","0.005","9.279","4656346","139.90133","patrol02","37.483701","1450325363929","20151217_130656","0.472"
"2015/12/17 13:06:56","5","0.015","9.123","4656347","139.901336","patrol02","37.483692","1450325364030","20151217_130656","0.436"
"2015/12/17 13:06:56","5","0.044","9.224","4656348","139.901341","patrol02","37.483682","1450325364131","20151217_130656","0.389"
"2015/12/17 13:06:56","5","-0.087","10.033","4656349","139.901347","patrol02","37.483672","1450325364231","20151217_130656","0.449"
"2015/12/17 13:06:56","5","-0.171","10.451","4656350","139.901352","patrol02","37.483663","1450325364332","20151217_130656","0.535"
"2015/12/17 13:06:56","5","0.19","10.165","4656351","139.901358","patrol02","37.483653","1450325364433","20151217_130656","0.419"
"2015/12/17 13:06:56","5","0.29","9.384","4656352","139.901363","patrol02","37.483644","1450325364533","20151217_130656","0.479"
"2015/12/17 13:06:56","5","-0.007","9.071","4656353","139.901368","patrol02","37.483635","1450325364629","20151217_130656","0.615"
"2015/12/17 13:06:56","5","0.14","9.057","4656354","139.901373","patrol02","37.483626","1450325364730","20151217_130656","0.593"
"2015/12/17 13:06:56","5","-0.022","9.388","4656355","139.901378","patrol02","37.483617","1450325364830","20151217_130656","0.476"
"2015/12/17 13:06:56","5","-0.13","9.779","4656356","139.901383","patrol02","37.483608","1450325364931","20151217_130656","0.388"
"2015/12/17 13:06:56","5","-0.089","9.837","4656357","139.901388","patrol02","37.483599","1450325365032","20151217_130656","0.378"
"2015/12/17 13:06:56","5","-0.023","9.723","4656358","139.901394","patrol02","37.483589","1450325365133","20151217_130656","0.347"
"2015/12/17 13:06:56","5","0.003","9.407","4656359","139.901399","patrol02","37.48358","1450325365233","20151217_130656","0.476"
"2015/12/17 13:06:56","5","0.175","9.21","4656360","139.901404","patrol02","37.483572","1450325365329","20151217_130656","0.465"
"2015/12/17 13:06:56","5","-0.003","9.468","4656361","139.901409","patrol02","37.483562","1450325365430","20151217_130656","0.314"
"2015/12/17 13:06:56","5","-0.285","10.297","4656362","139.901414","patrol02","37.483553","1450325365530","20151217_130656","0.549"
"2015/12/17 13:06:56","5","-0.047","10.275","4656363","139.90142","patrol02","37.483544","1450325365631","20151217_130656","0.557"
"2015/12/17 13:06:56","5","0.203","9.382","4656364","139.901425","patrol02","37.483535","1450325365732","20151217_130656","0.415"
"2015/12/17 13:06:56","5","0.043","8.897","4656365","139.901431","patrol02","37.483526","1450325365833","20151217_130656","0.463"
"2015/12/17 13:06:56","5","0.03","9.286","4656366","139.901436","patrol02","37.483517","1450325365933","20151217_130656","0.641"
"2015/12/17 13:06:56","5","0.109","10.01","4656367","139.901441","patrol02","37.483508","1450325366029","20151217_130656","0.635"
"2015/12/17 13:06:56","5","0.117","10.387","4656368","139.901447","patrol02","37.483499","1450325366130","20151217_130656","0.487"
"2015/12/17 13:06:56","5","0.246","10.04","4656369","139.901452","patrol02","37.48349","1450325366230","20151217_130656","0.48"
"2015/12/17 13:06:56","5","0.187","9.549","4656370","139.901458","patrol02","37.483481","1450325366331","20151217_130656","0.502"
"2015/12/17 13:06:56","5","0.289","9.049","4656371","139.901463","patrol02","37.483472","1450325366432","20151217_130656","0.396"
"2015/12/17 13:06:56","5","0.293","9.01","4656372","139.901468","patrol02","37.483463","1450325366533","20151217_130656","0.412"
"2015/12/17 13:06:56","5","0.033","9.464","4656373","139.901473","patrol02","37.483454","1450325366633","20151217_130656","0.496"
"2015/12/17 13:06:56","5","-0.099","9.976","4656374","139.901478","patrol02","37.483446","1450325366729","20151217_130656","0.326"
"2015/12/17 13:06:56","5","0.015","10.191","4656375","139.901482","patrol02","37.483437","1450325366830","20151217_130656","0.293"
"2015/12/17 13:06:56","5","-0.184","9.928","4656376","139.901487","patrol02","37.483428","1450325366930","20151217_130656","0.368"
"2015/12/17 13:06:56","5","-0.188","9.591","4656377","139.901492","patrol02","37.483419","1450325367031","20151217_130656","0.433"
"2015/12/17 13:06:56","5","0.057","9.305","4656378","139.901497","patrol02","37.48341","1450325367132","20151217_130656","0.471"
"2015/12/17 13:06:56","5","-0.038","9.2","4656379","139.901502","patrol02","37.483401","1450325367232","20151217_130656","0.479"
"2015/12/17 13:06:56","5","-0.199","9.161","4656380","139.901507","patrol02","37.483392","1450325367333","20151217_130656","0.481"
"2015/12/17 13:06:56","5","-0.129","9.127","4656381","139.901512","patrol02","37.483383","1450325367429","20151217_130656","0.553"
"2015/12/17 13:06:56","5","-0.145","9.996","4656382","139.901516","patrol02","37.483375","1450325367529","20151217_130656","0.546"
"2015/12/17 13:06:56","5","-0.25","10.729","4656383","139.901521","patrol02","37.483367","1450325367630","20151217_130656","0.636"
"2015/12/17 13:06:56","5","-0.049","10.358","4656384","139.901525","patrol02","37.483359","1450325367731","20151217_130656","0.647"
"2015/12/17 13:06:56","5","0.259","9.569","4656385","139.90153","patrol02","37.483351","1450325367832","20151217_130656","0.729"
"2015/12/17 13:06:56","5","-0.066","9.06","4656386","139.901534","patrol02","37.483343","1450325367932","20151217_130656","0.787"
"2015/12/17 13:06:56","5","-0.112","9.074","4656387","139.901539","patrol02","37.483335","1450325368034","20151217_130656","0.74"
"2015/12/17 13:06:56","5","0.062","9.399","4656388","139.901543","patrol02","37.483327","1450325368129","20151217_130656","0.708"
"2015/12/17 13:06:56","5","-0.298","9.889","4656389","139.901548","patrol02","37.483319","1450325368229","20151217_130656","0.689"
"2015/12/17 13:06:56","5","-0.448","10.002","4656390","139.901552","patrol02","37.483311","1450325368330","20151217_130656","0.515"
"2015/12/17 13:06:56","5","-0.066","9.761","4656391","139.901557","patrol02","37.483302","1450325368431","20151217_130656","0.522"
"2015/12/17 13:06:56","4","-0.007","9.375","4656392","139.901561","patrol02","37.483294","1450325368531","20151217_130656","0.408"
"2015/12/17 13:06:56","4","-0.278","9.223","4656393","139.901566","patrol02","37.483286","1450325368632","20151217_130656","0.352"
"2015/12/17 13:06:56","4","-0.31","9.459","4656394","139.90157","patrol02","37.483278","1450325368733","20151217_130656","0.346"
"2015/12/17 13:06:56","4","-0.399","9.766","4656395","139.901574","patrol02","37.483271","1450325368829","20151217_130656","0.375"
"2015/12/17 13:06:56","4","-0.603","9.862","4656396","139.901579","patrol02","37.483263","1450325368929","20151217_130656","0.367"
"2015/12/17 13:06:56","4","-0.665","9.778","4656397","139.901583","patrol02","37.483255","1450325369030","20151217_130656","0.422"
"2015/12/17 13:06:56","4","-0.626","9.578","4656398","139.901588","patrol02","37.483247","1450325369131","20151217_130656","0.457"
"2015/12/17 13:06:56","4","-0.736","9.575","4656399","139.901592","patrol02","37.483239","1450325369231","20151217_130656","0.415"
"2015/12/17 13:06:56","4","-0.788","9.778","4656400","139.901597","patrol02","37.483231","1450325369332","20151217_130656","0.48"
"2015/12/17 13:06:56","4","-0.834","9.81","4656401","139.901601","patrol02","37.483223","1450325369433","20151217_130656","0.484"
"2015/12/17 13:06:56","4","-0.821","9.608","4656402","139.901604","patrol02","37.483216","1450325369529","20151217_130656","0.515"
"2015/12/17 13:06:56","4","-0.802","9.576","4656403","139.901608","patrol02","37.483209","1450325369634","20151217_130656","0.406"
"2015/12/17 13:06:56","4","-0.841","9.72","4656404","139.901612","patrol02","37.483203","1450325369730","20151217_130656","0.439"
"2015/12/17 13:06:56","4","-0.89","9.863","4656405","139.901615","patrol02","37.483196","1450325369829","20151217_130656","0.52"
"2015/12/17 13:06:56","4","-0.742","9.815","4656406","139.901619","patrol02","37.483189","1450325369931","20151217_130656","0.488"
"2015/12/17 13:06:56","4","-0.733","9.574","4656407","139.901623","patrol02","37.483182","1450325370030","20151217_130656","0.443"
"2015/12/17 13:06:56","4","-0.794","9.357","4656408","139.901626","patrol02","37.483175","1450325370133","20151217_130656","0.486"
"2015/12/17 13:06:56","4","-0.762","9.43","4656409","139.90163","patrol02","37.483168","1450325370232","20151217_130656","0.589"
"2015/12/17 13:06:56","4","-0.812","9.579","4656410","139.901633","patrol02","37.483161","1450325370329","20151217_130656","0.603"
"2015/12/17 13:06:56","4","-0.834","9.701","4656411","139.901637","patrol02","37.483154","1450325370430","20151217_130656","0.527"
"2015/12/17 13:06:56","4","-0.787","9.695","4656412","139.90164","patrol02","37.483148","1450325370531","20151217_130656","0.5"
"2015/12/17 13:06:56","4","-0.764","9.725","4656413","139.901643","patrol02","37.483142","1450325370631","20151217_130656","0.414"
"2015/12/17 13:06:56","4","-0.67","9.655","4656414","139.901647","patrol02","37.483136","1450325370732","20151217_130656","0.37"
"2015/12/17 13:06:56","4","-0.598","9.529","4656415","139.90165","patrol02","37.48313","1450325370833","20151217_130656","0.431"
"2015/12/17 13:06:56","4","-0.666","9.425","4656416","139.901653","patrol02","37.483124","1450325370933","20151217_130656","0.459"
"2015/12/17 13:06:56","4","-0.649","9.524","4656417","139.901656","patrol02","37.483118","1450325371029","20151217_130656","0.426"
"2015/12/17 13:06:56","4","-0.688","9.719","4656418","139.901659","patrol02","37.483112","1450325371130","20151217_130656","0.449"
"2015/12/17 13:06:56","4","-0.662","9.661","4656419","139.901663","patrol02","37.483106","1450325371230","20151217_130656","0.422"
"2015/12/17 13:06:56","4","-0.567","9.524","4656420","139.901666","patrol02","37.4831","1450325371331","20151217_130656","0.45"
"2015/12/17 13:06:56","4","-0.491","9.473","4656421","139.901669","patrol02","37.483094","1450325371432","20151217_130656","0.488"
"2015/12/17 13:06:56","4","-0.416","9.567","4656422","139.901673","patrol02","37.483089","1450325371533","20151217_130656","0.516"
"2015/12/17 13:06:56","4","-0.382","9.667","4656423","139.901676","patrol02","37.483084","1450325371633","20151217_130656","0.479"
"2015/12/17 13:06:56","4","-0.349","9.688","4656424","139.90168","patrol02","37.483079","1450325371729","20151217_130656","0.423"
"2015/12/17 13:06:56","4","-0.329","9.624","4656425","139.901683","patrol02","37.483074","1450325371830","20151217_130656","0.347"
"2015/12/17 13:06:56","4","-0.238","9.63","4656426","139.901687","patrol02","37.483069","1450325371930","20151217_130656","0.394"
"2015/12/17 13:06:56","4","-0.252","9.684","4656427","139.901691","patrol02","37.483064","1450325372031","20151217_130656","0.445"
"2015/12/17 13:06:56","4","-0.189","9.752","4656428","139.901694","patrol02","37.483059","1450325372132","20151217_130656","0.514"
"2015/12/17 13:06:56","4","-0.067","9.607","4656429","139.901698","patrol02","37.483054","1450325372233","20151217_130656","0.468"
"2015/12/17 13:06:56","4","-0.012","9.534","4656430","139.901701","patrol02","37.483049","1450325372333","20151217_130656","0.325"
"2015/12/17 13:06:56","4","-0.04","9.651","4656431","139.901705","patrol02","37.483044","1450325372429","20151217_130656","0.437"
"2015/12/17 13:06:56","4","-0.204","9.851","4656432","139.901707","patrol02","37.483039","1450325372530","20151217_130656","0.594"
"2015/12/17 13:06:56","4","-0.236","9.963","4656433","139.901709","patrol02","37.483033","1450325372630","20151217_130656","0.62"
"2015/12/17 13:06:56","4","-0.109","9.806","4656434","139.901712","patrol02","37.483028","1450325372731","20151217_130656","0.578"
"2015/12/17 13:06:56","4","0.038","9.473","4656435","139.901714","patrol02","37.483023","1450325372832","20151217_130656","0.434"
"2015/12/17 13:06:56","4","0.02","9.32","4656436","139.901716","patrol02","37.483017","1450325372932","20151217_130656","0.367"
"2015/12/17 13:06:56","4","0.018","9.328","4656437","139.901718","patrol02","37.483012","1450325373033","20151217_130656","0.466"
"2015/12/17 13:06:56","4","-0.011","9.504","4656438","139.90172","patrol02","37.483007","1450325373129","20151217_130656","0.521"
"2015/12/17 13:06:56","4","0.01","9.69","4656439","139.901722","patrol02","37.483001","1450325373230","20151217_130656","0.575"
"2015/12/17 13:06:56","4","0.075","9.844","4656440","139.901725","patrol02","37.482996","1450325373330","20151217_130656","0.593"
"2015/12/17 13:06:56","4","0.063","9.862","4656441","139.901727","patrol02","37.48299","1450325373431","20151217_130656","0.645"
"2015/12/17 13:06:56","3","0.072","9.715","4656442","139.90173","patrol02","37.482985","1450325373532","20151217_130656","0.606"
"2015/12/17 13:06:56","3","0.129","9.627","4656443","139.901733","patrol02","37.48298","1450325373632","20151217_130656","0.519"
"2015/12/17 13:06:56","3","0.096","9.672","4656444","139.901736","patrol02","37.482975","1450325373733","20151217_130656","0.5"
"2015/12/17 13:06:56","3","0.07","9.707","4656445","139.901739","patrol02","37.48297","1450325373829","20151217_130656","0.527"
"2015/12/17 13:06:56","3","0.01","9.661","4656446","139.901742","patrol02","37.482965","1450325373929","20151217_130656","0.581"
"2015/12/17 13:06:56","3","-0.029","9.587","4656447","139.901745","patrol02","37.48296","1450325374030","20151217_130656","0.576"
"2015/12/17 13:06:56","3","0.037","9.655","4656448","139.901749","patrol02","37.482955","1450325374131","20151217_130656","0.576"
"2015/12/17 13:06:56","3","0.042","9.605","4656449","139.901752","patrol02","37.48295","1450325374231","20151217_130656","0.539"
"2015/12/17 13:06:56","3","0.086","9.533","4656450","139.901755","patrol02","37.482945","1450325374332","20151217_130656","0.524"
"2015/12/17 13:06:56","3","0.179","9.626","4656451","139.901758","patrol02","37.48294","1450325374433","20151217_130656","0.563"
"2015/12/17 13:06:56","3","0.23","9.665","4656452","139.90176","patrol02","37.482936","1450325374529","20151217_130656","0.638"
"2015/12/17 13:06:56","3","0.121","9.687","4656453","139.901763","patrol02","37.482931","1450325374629","20151217_130656","0.607"
"2015/12/17 13:06:56","3","-0.014","9.542","4656454","139.901765","patrol02","37.482926","1450325374730","20151217_130656","0.53"
"2015/12/17 13:06:56","3","0.078","9.636","4656455","139.901768","patrol02","37.482922","1450325374831","20151217_130656","0.478"
"2015/12/17 13:06:56","3","0.136","9.72","4656456","139.90177","patrol02","37.482917","1450325374932","20151217_130656","0.5"
"2015/12/17 13:06:56","3","0.006","9.808","4656457","139.901772","patrol02","37.482912","1450325375032","20151217_130656","0.5"
"2015/12/17 13:06:56","3","0.072","9.635","4656458","139.901775","patrol02","37.482908","1450325375133","20151217_130656","0.543"
"2015/12/17 13:06:56","3","0.101","9.569","4656459","139.901777","patrol02","37.482903","1450325375229","20151217_130656","0.524"
"2015/12/17 13:06:56","3","0.023","9.486","4656460","139.901779","patrol02","37.482899","1450325375329","20151217_130656","0.454"
"2015/12/17 13:06:56","3","0.068","9.491","4656461","139.901782","patrol02","37.482894","1450325375430","20151217_130656","0.386"
"2015/12/17 13:06:56","3","0.093","9.564","4656462","139.901784","patrol02","37.482889","1450325375531","20151217_130656","0.368"
"2015/12/17 13:06:56","3","-0.022","9.672","4656463","139.901787","patrol02","37.482885","1450325375631","20151217_130656","0.424"
"2015/12/17 13:06:56","3","0.048","9.717","4656464","139.90179","patrol02","37.48288","1450325375732","20151217_130656","0.465"
"2015/12/17 13:06:56","3","0.034","9.594","4656465","139.901792","patrol02","37.482875","1450325375833","20151217_130656","0.485"
"2015/12/17 13:06:56","3","0.045","9.594","4656466","139.901795","patrol02","37.48287","1450325375934","20151217_130656","0.408"
"2015/12/17 13:06:56","3","0.203","9.722","4656467","139.901797","patrol02","37.482866","1450325376029","20151217_130656","0.471"
"2015/12/17 13:06:56","3","0.26","9.704","4656468","139.9018","patrol02","37.482861","1450325376130","20151217_130656","0.51"
"2015/12/17 13:06:56","3","0.132","9.446","4656469","139.901803","patrol02","37.482856","1450325376231","20151217_130656","0.359"
"2015/12/17 13:06:56","3","0.173","9.498","4656470","139.901805","patrol02","37.482852","1450325376331","20151217_130656","0.232"
"2015/12/17 13:06:56","3","0.157","9.722","4656471","139.901808","patrol02","37.482847","1450325376432","20151217_130656","0.313"
"2015/12/17 13:06:56","3","0.093","9.679","4656472","139.90181","patrol02","37.482843","1450325376533","20151217_130656","0.415"
"2015/12/17 13:06:56","3","0.07","9.688","4656473","139.901812","patrol02","37.482839","1450325376633","20151217_130656","0.586"
"2015/12/17 13:06:56","3","0.011","9.657","4656474","139.901814","patrol02","37.482835","1450325376729","20151217_130656","0.733"
"2015/12/17 13:06:56","3","0.108","9.617","4656475","139.901816","patrol02","37.482831","1450325376830","20151217_130656","0.658"
"2015/12/17 13:06:56","3","0.034","9.53","4656476","139.901818","patrol02","37.482827","1450325376930","20151217_130656","0.584"
"2015/12/17 13:06:56","3","-0.199","9.595","4656477","139.901821","patrol02","37.482823","1450325377031","20151217_130656","0.492"
"2015/12/17 13:06:56","3","-0.065","9.619","4656478","139.901823","patrol02","37.482819","1450325377132","20151217_130656","0.554"
"2015/12/17 13:06:56","3","-0.182","9.65","4656479","139.901825","patrol02","37.482815","1450325377233","20151217_130656","0.633"
"2015/12/17 13:06:56","3","-0.321","9.712","4656480","139.901827","patrol02","37.482811","1450325377333","20151217_130656","0.673"
"2015/12/17 13:06:56","3","-0.214","9.711","4656481","139.901829","patrol02","37.482807","1450325377429","20151217_130656","0.616"
"2015/12/17 13:06:56","3","-0.299","9.571","4656482","139.901831","patrol02","37.482803","1450325377530","20151217_130656","0.493"
"2015/12/17 13:06:56","3","-0.241","9.565","4656483","139.901833","patrol02","37.4828","1450325377630","20151217_130656","0.42"
"2015/12/17 13:06:56","3","-0.187","9.617","4656484","139.901835","patrol02","37.482796","1450325377731","20151217_130656","0.496"
"2015/12/17 13:06:56","3","-0.255","9.658","4656485","139.901837","patrol02","37.482792","1450325377832","20151217_130656","0.506"
"2015/12/17 13:06:56","3","-0.231","9.628","4656486","139.901839","patrol02","37.482788","1450325377933","20151217_130656","0.493"
"2015/12/17 13:06:56","3","-0.214","9.732","4656487","139.90184","patrol02","37.482784","1450325378033","20151217_130656","0.547"
"2015/12/17 13:06:56","3","-0.307","9.66","4656488","139.901842","patrol02","37.482781","1450325378129","20151217_130656","0.544"
"2015/12/17 13:06:56","3","-0.291","9.622","4656489","139.901844","patrol02","37.482777","1450325378230","20151217_130656","0.478"
"2015/12/17 13:06:56","3","-0.424","9.605","4656490","139.901846","patrol02","37.482773","1450325378330","20151217_130656","0.458"
"2015/12/17 13:06:56","3","-0.429","9.618","4656491","139.901848","patrol02","37.482769","1450325378431","20151217_130656","0.412"
"2015/12/17 13:06:56","3","-0.431","9.68","4656492","139.90185","patrol02","37.482766","1450325378532","20151217_130656","0.419"
"2015/12/17 13:06:56","3","-0.441","9.694","4656493","139.901852","patrol02","37.482763","1450325378632","20151217_130656","0.425"
"2015/12/17 13:06:56","3","-0.362","9.668","4656494","139.901854","patrol02","37.48276","1450325378733","20151217_130656","0.518"
"2015/12/17 13:06:56","3","-0.339","9.666","4656495","139.901856","patrol02","37.482757","1450325378829","20151217_130656","0.517"
"2015/12/17 13:06:56","3","-0.295","9.56","4656496","139.901858","patrol02","37.482753","1450325378930","20151217_130656","0.472"
"2015/12/17 13:06:56","3","-0.271","9.586","4656497","139.901859","patrol02","37.48275","1450325379030","20151217_130656","0.428"
"2015/12/17 13:06:56","3","-0.321","9.626","4656498","139.901861","patrol02","37.482747","1450325379131","20151217_130656","0.402"
"2015/12/17 13:06:56","3","-0.265","9.661","4656499","139.901863","patrol02","37.482744","1450325379232","20151217_130656","0.436"
"2015/12/17 13:06:56","3","-0.329","9.613","4656500","139.901865","patrol02","37.482741","1450325379332","20151217_130656","0.433"
"2015/12/17 13:06:56","3","-0.265","9.645","4656501","139.901867","patrol02","37.482738","1450325379433","20151217_130656","0.429"
"2015/12/17 13:06:56","3","-0.234","9.644","4656502","139.901868","patrol02","37.482736","1450325379529","20151217_130656","0.442"
"2015/12/17 13:06:56","3","-0.276","9.641","4656503","139.901869","patrol02","37.482734","1450325379629","20151217_130656","0.452"
"2015/12/17 13:06:56","3","-0.195","9.662","4656504","139.90187","patrol02","37.482731","1450325379730","20151217_130656","0.459"
"2015/12/17 13:06:56","3","-0.228","9.619","4656505","139.901871","patrol02","37.482729","1450325379831","20151217_130656","0.444"
"2015/12/17 13:06:56","3","-0.297","9.641","4656506","139.901872","patrol02","37.482727","1450325379932","20151217_130656","0.435"
"2015/12/17 13:06:56","3","-0.292","9.714","4656507","139.901873","patrol02","37.482725","1450325380032","20151217_130656","0.5"
"2015/12/17 13:06:56","3","-0.257","9.672","4656508","139.901874","patrol02","37.482723","1450325380133","20151217_130656","0.463"
"2015/12/17 13:06:56","3","-0.217","9.603","4656509","139.901875","patrol02","37.48272","1450325380229","20151217_130656","0.428"
"2015/12/17 13:06:56","3","-0.213","9.567","4656510","139.901876","patrol02","37.482718","1450325380329","20151217_130656","0.408"
"2015/12/17 13:06:56","3","-0.244","9.621","4656511","139.901877","patrol02","37.482716","1450325380430","20151217_130656","0.376"
"2015/12/17 13:06:56","3","-0.198","9.693","4656512","139.901878","patrol02","37.482714","1450325380531","20151217_130656","0.382"
"2015/12/17 13:06:56","3","-0.266","9.727","4656513","139.901879","patrol02","37.482713","1450325380632","20151217_130656","0.453"
"2015/12/17 13:06:56","3","-0.247","9.733","4656514","139.90188","patrol02","37.482711","1450325380732","20151217_130656","0.505"
"2015/12/17 13:06:56","3","-0.172","9.658","4656515","139.901881","patrol02","37.48271","1450325380833","20151217_130656","0.532"
"2015/12/17 13:06:56","3","-0.086","9.599","4656516","139.901882","patrol02","37.482708","1450325380929","20151217_130656","0.491"
"2015/12/17 13:06:56","3","-0.071","9.524","4656517","139.901883","patrol02","37.482706","1450325381029","20151217_130656","0.449"
"2015/12/17 13:06:56","3","-0.038","9.57","4656518","139.901884","patrol02","37.482705","1450325381130","20151217_130656","0.408"
"2015/12/17 13:06:56","3","-0.065","9.621","4656519","139.901885","patrol02","37.482703","1450325381231","20151217_130656","0.397"
"2015/12/17 13:06:56","3","-0.054","9.685","4656520","139.901886","patrol02","37.482702","1450325381331","20151217_130656","0.42"
"2015/12/17 13:06:56","3","-0.047","9.704","4656521","139.901887","patrol02","37.4827","1450325381432","20151217_130656","0.439"
"2015/12/17 13:06:56","3","-0.067","9.64","4656522","139.901887","patrol02","37.482698","1450325381533","20151217_130656","0.498"
"2015/12/17 13:06:56","3","-0.092","9.617","4656523","139.901887","patrol02","37.482697","1450325381629","20151217_130656","0.547"
"2015/12/17 13:06:56","3","-0.073","9.591","4656524","139.901888","patrol02","37.482696","1450325381729","20151217_130656","0.482"
"2015/12/17 13:06:56","3","-0.108","9.635","4656525","139.901888","patrol02","37.482694","1450325381830","20151217_130656","0.441"
"2015/12/17 13:06:56","3","-0.102","9.687","4656526","139.901888","patrol02","37.482692","1450325381931","20151217_130656","0.42"
"2015/12/17 13:06:56","3","-0.134","9.672","4656527","139.901888","patrol02","37.482691","1450325382031","20151217_130656","0.37"
"2015/12/17 13:06:56","3","-0.177","9.628","4656528","139.901888","patrol02","37.482689","1450325382132","20151217_130656","0.392"
"2015/12/17 13:06:56","3","-0.209","9.684","4656529","139.901889","patrol02","37.482688","1450325382233","20151217_130656","0.491"
"2015/12/17 13:06:56","3","-0.169","9.656","4656530","139.901889","patrol02","37.482687","1450325382329","20151217_130656","0.46"
"2015/12/17 13:06:56","3","-0.21","9.626","4656531","139.901889","patrol02","37.482685","1450325382429","20151217_130656","0.503"
"2015/12/17 13:06:56","3","-0.174","9.619","4656532","139.901889","patrol02","37.482684","1450325382530","20151217_130656","0.487"
"2015/12/17 13:06:56","3","-0.129","9.638","4656533","139.901889","patrol02","37.482683","1450325382631","20151217_130656","0.475"
"2015/12/17 13:06:56","3","-0.099","9.67","4656534","139.90189","patrol02","37.482682","1450325382731","20151217_130656","0.413"
"2015/12/17 13:06:56","3","-0.121","9.746","4656535","139.90189","patrol02","37.482681","1450325382832","20151217_130656","0.434"
"2015/12/17 13:06:56","3","-0.048","9.698","4656536","139.90189","patrol02","37.48268","1450325382933","20151217_130656","0.466"
"2015/12/17 13:06:56","3","-0.088","9.621","4656537","139.90189","patrol02","37.48268","1450325383033","20151217_130656","0.543"
"2015/12/17 13:06:56","3","-0.089","9.605","4656538","139.90189","patrol02","37.482679","1450325383129","20151217_130656","0.545"
"2015/12/17 13:06:56","3","-0.089","9.606","4656539","139.901891","patrol02","37.482678","1450325383230","20151217_130656","0.479"
"2015/12/17 13:06:56","3","-0.105","9.68","4656540","139.901891","patrol02","37.482677","1450325383331","20151217_130656","0.474"
"2015/12/17 13:06:56","3","-0.063","9.658","4656541","139.901891","patrol02","37.482676","1450325383431","20151217_130656","0.433"
"2015/12/17 13:06:56","3","-0.086","9.624","4656542","139.901891","patrol02","37.482675","1450325383532","20151217_130656","0.431"
"2015/12/17 13:06:56","3","-0.087","9.613","4656543","139.901892","patrol02","37.482674","1450325383633","20151217_130656","0.392"
"2015/12/17 13:06:56","3","-0.103","9.632","4656544","139.901892","patrol02","37.482674","1450325383733","20151217_130656","0.423"
"2015/12/17 13:06:56","3","-0.137","9.663","4656545","139.901892","patrol02","37.482673","1450325383829","20151217_130656","0.492"
"2015/12/17 13:06:56","3","-0.111","9.602","4656546","139.901893","patrol02","37.482672","1450325383935","20151217_130656","0.463"
"2015/12/17 13:06:56","3","-0.111","9.63","4656547","139.901893","patrol02","37.482671","1450325384030","20151217_130656","0.454"
"2015/12/17 13:06:56","3","-0.043","9.652","4656548","139.901893","patrol02","37.48267","1450325384130","20151217_130656","0.455"
"2015/12/17 13:06:56","3","0.02","9.679","4656549","139.901893","patrol02","37.48267","1450325384232","20151217_130656","0.493"
"2015/12/17 13:06:56","3","0.073","9.663","4656550","139.901894","patrol02","37.482669","1450325384331","20151217_130656","0.516"
"2015/12/17 13:06:56","3","0.134","9.671","4656551","139.901894","patrol02","37.482668","1450325384433","20151217_130656","0.548"
"2015/12/17 13:06:56","3","0.148","9.656","4656552","139.901894","patrol02","37.482667","1450325384529","20151217_130656","0.543"
"2015/12/17 13:06:56","3","0.113","9.618","4656553","139.901894","patrol02","37.482667","1450325384630","20151217_130656","0.505"
"2015/12/17 13:06:56","3","0.1","9.592","4656554","139.901894","patrol02","37.482666","1450325384730","20151217_130656","0.505"
"2015/12/17 13:06:56","3","0.079","9.609","4656555","139.901894","patrol02","37.482666","1450325384831","20151217_130656","0.508"
"2015/12/17 13:06:56","3","0.096","9.662","4656556","139.901893","patrol02","37.482665","1450325384932","20151217_130656","0.516"
"2015/12/17 13:06:56","3","0.119","9.659","4656557","139.901893","patrol02","37.482664","1450325385033","20151217_130656","0.514"
"2015/12/17 13:06:56","3","0.14","9.664","4656558","139.901893","patrol02","37.482664","1450325385133","20151217_130656","0.517"
"2015/12/17 13:06:56","3","0.114","9.606","4656559","139.901893","patrol02","37.482663","1450325385229","20151217_130656","0.502"
"2015/12/17 13:06:56","3","0.103","9.604","4656560","139.901893","patrol02","37.482663","1450325385330","20151217_130656","0.49"
"2015/12/17 13:06:56","3","0.092","9.592","4656561","139.901893","patrol02","37.482662","1450325385430","20151217_130656","0.524"
"2015/12/17 13:06:56","3","0.118","9.649","4656562","139.901893","patrol02","37.482661","1450325385531","20151217_130656","0.524"
"2015/12/17 13:06:56","3","0.125","9.697","4656563","139.901893","patrol02","37.482661","1450325385632","20151217_130656","0.5"
"2015/12/17 13:06:56","3","0.118","9.719","4656564","139.901893","patrol02","37.48266","1450325385733","20151217_130656","0.468"
"2015/12/17 13:06:56","3","0.106","9.667","4656565","139.901893","patrol02","37.48266","1450325385833","20151217_130656","0.489"
"2015/12/17 13:06:56","3","0.111","9.632","4656566","139.901893","patrol02","37.48266","1450325385929","20151217_130656","0.496"
"2015/12/17 13:06:56","3","0.087","9.598","4656567","139.901894","patrol02","37.482659","1450325386030","20151217_130656","0.516"
"2015/12/17 13:06:56","3","0.101","9.66","4656568","139.901894","patrol02","37.482659","1450325386130","20151217_130656","0.542"
"2015/12/17 13:06:56","3","0.107","9.674","4656569","139.901894","patrol02","37.482658","1450325386231","20151217_130656","0.534"
"2015/12/17 13:06:56","3","0.104","9.689","4656570","139.901894","patrol02","37.482658","1450325386332","20151217_130656","0.521"
"2015/12/17 13:06:56","3","0.104","9.628","4656571","139.901894","patrol02","37.482657","1450325386432","20151217_130656","0.502"
"2015/12/17 13:06:56","3","0.097","9.619","4656572","139.901894","patrol02","37.482657","1450325386533","20151217_130656","0.49"
"2015/12/17 13:06:56","3","0.09","9.613","4656573","139.901893","patrol02","37.482657","1450325386629","20151217_130656","0.512"
"2015/12/17 13:06:56","3","0.092","9.607","4656574","139.901893","patrol02","37.482657","1450325386729","20151217_130656","0.525"
"2015/12/17 13:06:56","3","0.107","9.638","4656575","139.901893","patrol02","37.482657","1450325386830","20151217_130656","0.531"
"2015/12/17 13:06:56","3","0.119","9.664","4656576","139.901893","patrol02","37.482657","1450325386931","20151217_130656","0.525"
"2015/12/17 13:06:56","3","0.138","9.682","4656577","139.901892","patrol02","37.482657","1450325387032","20151217_130656","0.503"
"2015/12/17 13:06:56","3","0.13","9.651","4656578","139.901892","patrol02","37.482657","1450325387132","20151217_130656","0.496"
"2015/12/17 13:06:56","3","0.131","9.65","4656579","139.901892","patrol02","37.482657","1450325387233","20151217_130656","0.491"
"2015/12/17 13:06:56","3","0.209","9.652","4656580","139.901891","patrol02","37.482657","1450325387329","20151217_130656","0.506"
"2015/12/17 13:06:56","3","0.335","9.68","4656581","139.901891","patrol02","37.482657","1450325387429","20151217_130656","0.527"
"2015/12/17 13:06:56","3","0.41","9.641","4656582","139.901891","patrol02","37.482657","1450325387530","20151217_130656","0.532"
"2015/12/17 13:06:56","3","0.402","9.628","4656583","139.90189","patrol02","37.482657","1450325387631","20151217_130656","0.514"
"2015/12/17 13:06:56","3","0.36","9.617","4656584","139.90189","patrol02","37.482658","1450325387731","20151217_130656","0.499"
"2015/12/17 13:06:56","3","0.362","9.637","4656585","139.90189","patrol02","37.482658","1450325387832","20151217_130656","0.507"
"2015/12/17 13:06:56","3","0.369","9.649","4656586","139.901889","patrol02","37.482658","1450325387933","20151217_130656","0.516"
"2015/12/17 13:06:56","3","0.385","9.67","4656587","139.901889","patrol02","37.482658","1450325388029","20151217_130656","0.523"
"2015/12/17 13:06:56","3","0.398","9.662","4656588","139.901889","patrol02","37.482658","1450325388129","20151217_130656","0.517"
"2015/12/17 13:06:56","3","0.392","9.663","4656589","139.901889","patrol02","37.482659","1450325388230","20151217_130656","0.509"
"2015/12/17 13:06:56","3","0.379","9.66","4656590","139.901888","patrol02","37.482659","1450325388331","20151217_130656","0.503"
"2015/12/17 13:06:56","3","0.372","9.645","4656591","139.901888","patrol02","37.482659","1450325388431","20151217_130656","0.504"
"2015/12/17 13:06:56","3","0.364","9.619","4656592","139.901888","patrol02","37.482659","1450325388532","20151217_130656","0.519"
"2015/12/17 13:06:56","3","0.372","9.61","4656593","139.901887","patrol02","37.482659","1450325388633","20151217_130656","0.524"
"2015/12/17 13:06:56","3","0.382","9.636","4656594","139.901887","patrol02","37.482659","1450325388729","20151217_130656","0.519"
"2015/12/17 13:06:56","3","0.364","9.621","4656595","139.901886","patrol02","37.482659","1450325388829","20151217_130656","0.515"
"2015/12/17 13:06:56","3","0.383","9.646","4656596","139.901886","patrol02","37.482659","1450325388930","20151217_130656","0.506"
"2015/12/17 13:06:56","3","0.395","9.663","4656597","139.901886","patrol02","37.482659","1450325389031","20151217_130656","0.506"
"2015/12/17 13:06:56","3","0.374","9.608","4656598","139.901885","patrol02","37.482659","1450325389131","20151217_130656","0.521"
"2015/12/17 13:06:56","3","0.394","9.661","4656599","139.901885","patrol02","37.482659","1450325389232","20151217_130656","0.515"
"2015/12/17 13:06:56","3","0.382","9.655","4656600","139.901884","patrol02","37.482659","1450325389333","20151217_130656","0.511"
"2015/12/17 13:06:56","3","0.345","9.578","4656601","139.901884","patrol02","37.482659","1450325389433","20151217_130656","0.521"
"2015/12/17 13:06:56","3","0.376","9.644","4656602","139.901884","patrol02","37.482659","1450325389529","20151217_130656","0.516"
"2015/12/17 13:06:56","3","0.381","9.647","4656603","139.901883","patrol02","37.482659","1450325389630","20151217_130656","0.513"
"2015/12/17 13:06:56","3","0.352","9.609","4656604","139.901883","patrol02","37.482659","1450325389731","20151217_130656","0.517"
"2015/12/17 13:06:56","3","0.389","9.699","4656605","139.901882","patrol02","37.482659","1450325389831","20151217_130656","0.505"
"2015/12/17 13:06:56","3","0.389","9.687","4656606","139.901882","patrol02","37.482659","1450325389932","20151217_130656","0.507"
"2015/12/17 13:06:56","3","0.369","9.647","4656607","139.901882","patrol02","37.482659","1450325390033","20151217_130656","0.516"
"2015/12/17 13:06:56","3","0.384","9.673","4656608","139.901881","patrol02","37.482659","1450325390133","20151217_130656","0.504"
"2015/12/17 13:06:56","3","0.386","9.663","4656609","139.901881","patrol02","37.482659","1450325390229","20151217_130656","0.509"
"2015/12/17 13:06:56","3","0.36","9.627","4656610","139.90188","patrol02","37.482659","1450325390330","20151217_130656","0.513"
"2015/12/17 13:06:56","3","0.38","9.653","4656611","139.90188","patrol02","37.482659","1450325390430","20151217_130656","0.509"
"2015/12/17 13:06:56","3","0.392","9.681","4656612","139.90188","patrol02","37.482659","1450325390532","20151217_130656","0.506"
"2015/12/17 13:06:56","3","0.4","9.695","4656613","139.901879","patrol02","37.482659","1450325390632","20151217_130656","0.499"
"2015/12/17 13:06:56","3","0.39","9.688","4656614","139.901879","patrol02","37.482659","1450325390733","20151217_130656","0.502"
"2015/12/17 13:06:56","3","0.388","9.705","4656615","139.901879","patrol02","37.482659","1450325390833","20151217_130656","0.499"
"2015/12/17 13:06:56","3","0.382","9.669","4656616","139.901879","patrol02","37.482659","1450325390929","20151217_130656","0.509"
"2015/12/17 13:06:56","3","0.374","9.646","4656617","139.901878","patrol02","37.482659","1450325391030","20151217_130656","0.51"
"2015/12/17 13:06:56","3","0.385","9.654","4656618","139.901878","patrol02","37.482659","1450325391130","20151217_130656","0.502"
"2015/12/17 13:06:56","3","0.373","9.648","4656619","139.901878","patrol02","37.482659","1450325391231","20151217_130656","0.508"
"2015/12/17 13:06:56","3","0.369","9.632","4656620","139.901877","patrol02","37.482659","1450325391332","20151217_130656","0.512"
"2015/12/17 13:06:56","3","0.381","9.651","4656621","139.901877","patrol02","37.482659","1450325391432","20151217_130656","0.513"
"2015/12/17 13:06:56","3","0.384","9.644","4656622","139.901877","patrol02","37.482659","1450325391533","20151217_130656","0.518"
"2015/12/17 13:06:56","3","0.377","9.624","4656623","139.901876","patrol02","37.482659","1450325391629","20151217_130656","0.518"
"2015/12/17 13:06:56","3","0.37","9.641","4656624","139.901876","patrol02","37.482659","1450325391730","20151217_130656","0.514"
"2015/12/17 13:06:56","3","0.373","9.649","4656625","139.901876","patrol02","37.482659","1450325391830","20151217_130656","0.511"
"2015/12/17 13:06:56","3","0.366","9.64","4656626","139.901876","patrol02","37.482659","1450325391931","20151217_130656","0.511"
"2015/12/17 13:06:56","3","0.372","9.638","4656627","139.901875","patrol02","37.48266","1450325392032","20151217_130656","0.511"
"2015/12/17 13:06:56","3","0.379","9.647","4656628","139.901875","patrol02","37.48266","1450325392132","20151217_130656","0.511"
"2015/12/17 13:06:56","3","0.366","9.632","4656629","139.901875","patrol02","37.48266","1450325392233","20151217_130656","0.513"
"2015/12/17 13:06:56","3","0.375","9.632","4656630","139.901874","patrol02","37.48266","1450325392329","20151217_130656","0.511"
"2015/12/17 13:06:56","3","0.391","9.667","4656631","139.901874","patrol02","37.48266","1450325392430","20151217_130656","0.506"
"2015/12/17 13:06:56","3","0.373","9.621","4656632","139.901874","patrol02","37.48266","1450325392530","20151217_130656","0.514"
"2015/12/17 13:06:56","3","0.355","9.597","4656633","139.901874","patrol02","37.48266","1450325392631","20151217_130656","0.52"
"2015/12/17 13:06:56","3","0.383","9.66","4656634","139.901873","patrol02","37.48266","1450325392732","20151217_130656","0.511"
"2015/12/17 13:06:56","3","0.371","9.632","4656635","139.901873","patrol02","37.48266","1450325392832","20151217_130656","0.511"
"2015/12/17 13:06:56","3","0.366","9.604","4656636","139.901873","patrol02","37.48266","1450325392933","20151217_130656","0.516"
"2015/12/17 13:06:56","3","0.389","9.659","4656637","139.901873","patrol02","37.48266","1450325393029","20151217_130656","0.511"
"2015/12/17 13:06:56","3","0.387","9.652","4656638","139.901873","patrol02","37.48266","1450325393129","20151217_130656","0.51"
"2015/12/17 13:06:56","3","0.361","9.596","4656639","139.901872","patrol02","37.48266","1450325393230","20151217_130656","0.519"
"2015/12/17 13:06:56","3","0.38","9.635","4656640","139.901872","patrol02","37.48266","1450325393331","20151217_130656","0.51"
"2015/12/17 13:06:56","3","0.389","9.655","4656641","139.901872","patrol02","37.48266","1450325393432","20151217_130656","0.509"
"2015/12/17 13:06:56","3","0.363","9.634","4656642","139.901872","patrol02","37.48266","1450325393532","20151217_130656","0.519"
"2015/12/17 13:06:56","3","0.394","9.673","4656643","139.901872","patrol02","37.48266","1450325393633","20151217_130656","0.511"
"2015/12/17 13:06:56","3","0.384","9.657","4656644","139.901872","patrol02","37.482661","1450325393729","20151217_130656","0.518"
"2015/12/17 13:06:56","3","0.371","9.608","4656645","139.901872","patrol02","37.482661","1450325393829","20151217_130656","0.516"
"2015/12/17 13:06:56","3","0.377","9.63","4656646","139.901873","patrol02","37.482661","1450325393931","20151217_130656","0.509"
"2015/12/17 13:06:56","3","0.385","9.638","4656647","139.901873","patrol02","37.482661","1450325394031","20151217_130656","0.509"
"2015/12/17 13:06:56","3","0.368","9.615","4656648","139.901873","patrol02","37.482661","1450325394131","20151217_130656","0.515"
"2015/12/17 13:06:56","3","0.37","9.62","4656649","139.901873","patrol02","37.482662","1450325394232","20151217_130656","0.518"
"2015/12/17 13:06:56","3","0.389","9.677","4656650","139.901873","patrol02","37.482662","1450325394333","20151217_130656","0.506"
"2015/12/17 13:06:56","3","0.391","9.674","4656651","139.901873","patrol02","37.482662","1450325394429","20151217_130656","0.506"
"2015/12/17 13:06:56","3","0.383","9.647","4656652","139.901873","patrol02","37.482662","1450325394529","20151217_130656","0.508"
"2015/12/17 13:06:56","3","0.403","9.684","4656653","139.901873","patrol02","37.482663","1450325394630","20151217_130656","0.502"
"2015/12/17 13:06:56","3","0.395","9.678","4656654","139.901873","patrol02","37.482663","1450325394731","20151217_130656","0.502"
"2015/12/17 13:06:56","3","0.39","9.643","4656655","139.901873","patrol02","37.482663","1450325394831","20151217_130656","0.505"
"2015/12/17 13:06:56","3","0.411","9.682","4656656","139.901872","patrol02","37.482664","1450325394932","20151217_130656","0.502"
"2015/12/17 13:06:56","3","0.412","9.696","4656657","139.901872","patrol02","37.482664","1450325395033","20151217_130656","0.502"
"2015/12/17 13:06:56","3","0.383","9.645","4656658","139.901872","patrol02","37.482664","1450325395133","20151217_130656","0.511"
"2015/12/17 13:06:56","3","0.381","9.642","4656659","139.901872","patrol02","37.482664","1450325395229","20151217_130656","0.509"
"2015/12/17 13:06:56","3","0.4","9.677","4656660","139.901872","patrol02","37.482665","1450325395330","20151217_130656","0.502"
"2015/12/17 13:06:56","3","0.382","9.633","4656661","139.901872","patrol02","37.482665","1450325395431","20151217_130656","0.508"
"2015/12/17 13:06:56","3","0.376","9.62","4656662","139.901872","patrol02","37.482665","1450325395531","20151217_130656","0.514"
"2015/12/17 13:06:56","3","0.398","9.667","4656663","139.901872","patrol02","37.482666","1450325395632","20151217_130656","0.511"
"2015/12/17 13:06:56","3","0.371","9.644","4656664","139.901872","patrol02","37.482666","1450325395733","20151217_130656","0.521"
"2015/12/17 13:06:56","3","0.372","9.624","4656665","139.901872","patrol02","37.482666","1450325395833","20151217_130656","0.512"
"2015/12/17 13:06:56","3","0.389","9.67","4656666","139.901873","patrol02","37.482667","1450325395929","20151217_130656","0.513"
"2015/12/17 13:06:56","3","0.385","9.653","4656667","139.901873","patrol02","37.482667","1450325396030","20151217_130656","0.509"
"2015/12/17 13:06:56","3","0.374","9.639","4656668","139.901873","patrol02","37.482667","1450325396131","20151217_130656","0.51"
