"measurement_datetime","gps_error_meter","accel_y_longitudinal","accel_z_vertical","oid","longitude","car_name","latitude","measurement_ms","measurement_data_id","accel_x_transverse"
"2015/11/13 10:54:29","18","0.947","9.701","66938","139.93762","patrol01","37.521639","1447379792343","20151113_105429","0.024"
"2015/11/13 10:54:29","18","0.864","9.638","66939","139.93762","patrol01","37.521639","1447379792444","20151113_105429","-0.084"
"2015/11/13 10:54:29","18","0.811","9.695","66940","139.937619","patrol01","37.521639","1447379792545","20151113_105429","-0.242"
"2015/11/13 10:54:29","18","0.862","9.7","66941","139.937619","patrol01","37.521638","1447379792645","20151113_105429","-0.268"
"2015/11/13 10:54:29","18","0.793","9.742","66942","139.937618","patrol01","37.521638","1447379792746","20151113_105429","-0.126"
"2015/11/13 10:54:29","18","0.777","9.765","66943","139.937618","patrol01","37.521638","1447379792847","20151113_105429","-0.018"
"2015/11/13 10:54:29","18","0.698","9.765","66944","139.937618","patrol01","37.521638","1447379792943","20151113_105429","-0.037"
"2015/11/13 10:54:29","18","0.493","9.667","66945","139.937617","patrol01","37.521638","1447379793043","20151113_105429","-0.122"
"2015/11/13 10:54:29","18","0.436","9.713","66946","139.937617","patrol01","37.521637","1447379793144","20151113_105429","-0.245"
"2015/11/13 10:54:29","18","0.346","9.729","66947","139.937616","patrol01","37.521637","1447379793245","20151113_105429","-0.344"
"2015/11/13 10:54:29","17","0.246","9.727","66948","139.937616","patrol01","37.521637","1447379793345","20151113_105429","-0.325"
"2015/11/13 10:54:29","17","0.199","9.755","66949","139.937614","patrol01","37.521636","1447379793446","20151113_105429","-0.268"
"2015/11/13 10:54:29","17","0.165","9.703","66950","139.937612","patrol01","37.521636","1447379793547","20151113_105429","-0.398"
"2015/11/13 10:54:29","17","0.117","9.619","66951","139.93761","patrol01","37.521635","1447379793647","20151113_105429","-0.493"
"2015/11/13 10:54:29","17","0.345","9.731","66952","139.937608","patrol01","37.521634","1447379793743","20151113_105429","-0.556"
"2015/11/13 10:54:29","17","0.693","9.894","66953","139.937607","patrol01","37.521634","1447379793844","20151113_105429","-0.573"
"2015/11/13 10:54:29","17","0.604","9.888","66954","139.937605","patrol01","37.521633","1447379793945","20151113_105429","-0.536"
"2015/11/13 10:54:29","17","0.427","9.732","66955","139.937603","patrol01","37.521632","1447379794045","20151113_105429","-0.571"
"2015/11/13 10:54:29","17","0.403","9.703","66956","139.937601","patrol01","37.521631","1447379794146","20151113_105429","-0.686"
"2015/11/13 10:54:29","17","0.233","9.726","66957","139.937599","patrol01","37.521631","1447379794247","20151113_105429","-0.696"
"2015/11/13 10:54:29","13","0.058","9.787","66958","139.937597","patrol01","37.52163","1447379794347","20151113_105429","-0.806"
"2015/11/13 10:54:29","13","-0.061","9.868","66959","139.937593","patrol01","37.521628","1447379794443","20151113_105429","-0.906"
"2015/11/13 10:54:29","13","-0.099","9.836","66960","139.93759","patrol01","37.521625","1447379794544","20151113_105429","-1.059"
"2015/11/13 10:54:29","13","-0.076","9.816","66961","139.937586","patrol01","37.521623","1447379794645","20151113_105429","-1.046"
"2015/11/13 10:54:29","13","-0.123","9.761","66962","139.937582","patrol01","37.521621","1447379794745","20151113_105429","-1.084"
"2015/11/13 10:54:29","13","-0.15","9.714","66963","139.937579","patrol01","37.521619","1447379794846","20151113_105429","-1.125"
"2015/11/13 10:54:29","13","-0.3","9.729","66964","139.937575","patrol01","37.521616","1447379794947","20151113_105429","-1.188"
"2015/11/13 10:54:29","13","-0.296","9.764","66965","139.937571","patrol01","37.521614","1447379795047","20151113_105429","-1.223"
"2015/11/13 10:54:29","13","-0.242","9.757","66966","139.937567","patrol01","37.521612","1447379795143","20151113_105429","-1.341"
"2015/11/13 10:54:29","13","-0.194","9.808","66967","139.937564","patrol01","37.521609","1447379795244","20151113_105429","-1.468"
"2015/11/13 10:54:29","12","-0.131","9.794","66968","139.93756","patrol01","37.521607","1447379795344","20151113_105429","-1.632"
"2015/11/13 10:54:29","12","-0.07","9.761","66969","139.937556","patrol01","37.521604","1447379795445","20151113_105429","-1.719"
"2015/11/13 10:54:29","12","-0.086","9.76","66970","139.937553","patrol01","37.521601","1447379795546","20151113_105429","-1.684"
"2015/11/13 10:54:29","12","-0.043","9.732","66971","139.937549","patrol01","37.521598","1447379795647","20151113_105429","-1.7"
"2015/11/13 10:54:29","12","0.004","9.704","66972","139.937546","patrol01","37.521595","1447379795747","20151113_105429","-1.677"
"2015/11/13 10:54:29","12","0.034","9.673","66973","139.937542","patrol01","37.521593","1447379795843","20151113_105429","-1.804"
"2015/11/13 10:54:29","12","0.104","9.711","66974","139.937538","patrol01","37.52159","1447379795944","20151113_105429","-1.859"
"2015/11/13 10:54:29","12","0.163","9.799","66975","139.937535","patrol01","37.521587","1447379796044","20151113_105429","-1.922"
"2015/11/13 10:54:29","12","0.201","9.712","66976","139.937531","patrol01","37.521584","1447379796145","20151113_105429","-1.939"
"2015/11/13 10:54:29","12","0.256","9.646","66977","139.937528","patrol01","37.521581","1447379796246","20151113_105429","-2.023"
"2015/11/13 10:54:29","11","0.27","9.657","66978","139.937524","patrol01","37.521578","1447379796346","20151113_105429","-2.025"
"2015/11/13 10:54:29","11","0.306","9.701","66979","139.937518","patrol01","37.521577","1447379796447","20151113_105429","-2.077"
"2015/11/13 10:54:29","11","0.275","9.685","66980","139.937513","patrol01","37.521576","1447379796543","20151113_105429","-1.981"
"2015/11/13 10:54:29","11","0.284","9.735","66981","139.937507","patrol01","37.521575","1447379796649","20151113_105429","-1.996"
"2015/11/13 10:54:29","11","0.303","9.689","66982","139.937501","patrol01","37.521574","1447379796744","20151113_105429","-2.077"
"2015/11/13 10:54:29","11","0.253","9.569","66983","139.937496","patrol01","37.521573","1447379796843","20151113_105429","-2.114"
"2015/11/13 10:54:29","11","0.41","9.718","66984","139.93749","patrol01","37.521571","1447379796946","20151113_105429","-2.256"
"2015/11/13 10:54:29","11","0.464","9.922","66985","139.937484","patrol01","37.52157","1447379797045","20151113_105429","-2.258"
"2015/11/13 10:54:29","11","0.417","9.878","66986","139.937478","patrol01","37.521569","1447379797147","20151113_105429","-2.139"
"2015/11/13 10:54:29","11","0.343","9.682","66987","139.937473","patrol01","37.521568","1447379797243","20151113_105429","-1.991"
"2015/11/13 10:54:29","10","0.335","9.633","66988","139.937467","patrol01","37.521567","1447379797344","20151113_105429","-1.801"
"2015/11/13 10:54:29","10","0.321","9.735","66989","139.937459","patrol01","37.521567","1447379797444","20151113_105429","-1.871"
"2015/11/13 10:54:29","10","0.309","9.858","66990","139.937451","patrol01","37.521567","1447379797545","20151113_105429","-1.918"
"2015/11/13 10:54:29","10","0.356","9.811","66991","139.937443","patrol01","37.521567","1447379797646","20151113_105429","-1.795"
"2015/11/13 10:54:29","10","0.317","9.727","66992","139.937435","patrol01","37.521567","1447379797746","20151113_105429","-1.659"
"2015/11/13 10:54:29","10","0.253","9.666","66993","139.937428","patrol01","37.521566","1447379797847","20151113_105429","-1.49"
"2015/11/13 10:54:29","10","0.298","9.81","66994","139.93742","patrol01","37.521566","1447379797943","20151113_105429","-1.36"
"2015/11/13 10:54:29","10","0.247","9.782","66995","139.937412","patrol01","37.521566","1447379798043","20151113_105429","-1.244"
"2015/11/13 10:54:29","10","0.258","9.644","66996","139.937404","patrol01","37.521566","1447379798144","20151113_105429","-1.119"
"2015/11/13 10:54:29","10","0.18","9.571","66997","139.937396","patrol01","37.521566","1447379798245","20151113_105429","-1.044"
"2015/11/13 10:54:29","10","0.216","9.666","66998","139.937388","patrol01","37.521566","1447379798346","20151113_105429","-1.028"
"2015/11/13 10:54:29","10","0.191","9.795","66999","139.937379","patrol01","37.521567","1447379798446","20151113_105429","-0.97"
"2015/11/13 10:54:29","10","0.253","9.801","67000","139.93737","patrol01","37.521568","1447379798547","20151113_105429","-0.815"
"2015/11/13 10:54:29","10","0.369","9.735","67001","139.937362","patrol01","37.521569","1447379798643","20151113_105429","-0.612"
"2015/11/13 10:54:29","10","0.346","9.737","67002","139.937353","patrol01","37.52157","1447379798743","20151113_105429","-0.51"
"2015/11/13 10:54:29","10","0.248","9.799","67003","139.937344","patrol01","37.52157","1447379798844","20151113_105429","-0.594"
"2015/11/13 10:54:29","10","0.241","9.774","67004","139.937335","patrol01","37.521571","1447379798945","20151113_105429","-0.599"
"2015/11/13 10:54:29","10","0.245","9.803","67005","139.937326","patrol01","37.521572","1447379799045","20151113_105429","-0.563"
"2015/11/13 10:54:29","10","0.248","9.725","67006","139.937317","patrol01","37.521573","1447379799146","20151113_105429","-0.488"
"2015/11/13 10:54:29","10","0.23","9.764","67007","139.937308","patrol01","37.521574","1447379799247","20151113_105429","-0.372"
"2015/11/13 10:54:29","9","0.212","9.72","67008","139.9373","patrol01","37.521574","1447379799343","20151113_105429","-0.27"
"2015/11/13 10:54:29","9","0.203","9.743","67009","139.937291","patrol01","37.521575","1447379799443","20151113_105429","-0.26"
"2015/11/13 10:54:29","9","0.203","9.756","67010","139.937282","patrol01","37.521576","1447379799544","20151113_105429","-0.284"
"2015/11/13 10:54:29","9","0.201","9.752","67011","139.937272","patrol01","37.521576","1447379799645","20151113_105429","-0.323"
"2015/11/13 10:54:29","9","0.267","9.848","67012","139.937263","patrol01","37.521577","1447379799745","20151113_105429","-0.311"
"2015/11/13 10:54:29","9","0.208","9.82","67013","139.937254","patrol01","37.521578","1447379799846","20151113_105429","-0.321"
"2015/11/13 10:54:29","9","0.189","9.817","67014","139.937245","patrol01","37.521579","1447379799947","20151113_105429","-0.386"
"2015/11/13 10:54:29","9","0.204","9.744","67015","139.937236","patrol01","37.521579","1447379800048","20151113_105429","-0.334"
"2015/11/13 10:54:29","9","0.197","9.768","67016","139.937227","patrol01","37.52158","1447379800143","20151113_105429","-0.374"
"2015/11/13 10:54:29","9","0.168","9.668","67017","139.937218","patrol01","37.521581","1447379800244","20151113_105429","-0.363"
"2015/11/13 10:54:29","9","0.207","9.752","67018","139.937208","patrol01","37.521582","1447379800345","20151113_105429","-0.368"
"2015/11/13 10:54:29","9","0.212","9.734","67019","139.937198","patrol01","37.521583","1447379800445","20151113_105429","-0.376"
"2015/11/13 10:54:29","9","0.204","9.807","67020","139.937187","patrol01","37.521584","1447379800547","20151113_105429","-0.345"
"2015/11/13 10:54:29","9","0.216","9.803","67021","139.937177","patrol01","37.521586","1447379800647","20151113_105429","-0.33"
"2015/11/13 10:54:29","9","0.233","9.783","67022","139.937166","patrol01","37.521587","1447379800747","20151113_105429","-0.367"
"2015/11/13 10:54:29","9","0.243","9.692","67023","139.937157","patrol01","37.521589","1447379800843","20151113_105429","-0.348"
"2015/11/13 10:54:29","9","0.268","9.74","67024","139.937146","patrol01","37.52159","1447379800944","20151113_105429","-0.265"
"2015/11/13 10:54:29","9","0.286","9.773","67025","139.937136","patrol01","37.521591","1447379801045","20151113_105429","-0.293"
"2015/11/13 10:54:29","9","0.3","9.746","67026","139.937125","patrol01","37.521593","1447379801145","20151113_105429","-0.342"
"2015/11/13 10:54:29","9","0.342","9.791","67027","139.937115","patrol01","37.521594","1447379801246","20151113_105429","-0.317"
"2015/11/13 10:54:29","8","0.328","9.776","67028","139.937103","patrol01","37.521595","1447379801347","20151113_105429","-0.342"
"2015/11/13 10:54:29","8","0.379","9.793","67029","139.937091","patrol01","37.521596","1447379801447","20151113_105429","-0.309"
"2015/11/13 10:54:29","8","0.39","9.771","67030","139.937079","patrol01","37.521597","1447379801543","20151113_105429","-0.401"
"2015/11/13 10:54:29","8","0.411","9.767","67031","139.937067","patrol01","37.521597","1447379801644","20151113_105429","-0.413"
"2015/11/13 10:54:29","8","0.399","9.709","67032","139.937055","patrol01","37.521598","1447379801744","20151113_105429","-0.392"
"2015/11/13 10:54:29","8","0.389","9.685","67033","139.937042","patrol01","37.521599","1447379801845","20151113_105429","-0.461"
"2015/11/13 10:54:29","8","0.428","9.763","67034","139.93703","patrol01","37.5216","1447379801946","20151113_105429","-0.402"
"2015/11/13 10:54:29","8","0.417","9.737","67035","139.937018","patrol01","37.5216","1447379802047","20151113_105429","-0.408"
"2015/11/13 10:54:29","8","0.471","9.688","67036","139.937005","patrol01","37.521601","1447379802147","20151113_105429","-0.612"
"2015/11/13 10:54:29","8","0.59","9.888","67037","139.936994","patrol01","37.521602","1447379802243","20151113_105429","-0.387"
"2015/11/13 10:54:29","9","0.659","9.92","67038","139.936982","patrol01","37.521603","1447379802344","20151113_105429","-0.333"
"2015/11/13 10:54:29","9","0.53","9.891","67039","139.93697","patrol01","37.521605","1447379802444","20151113_105429","-0.377"
"2015/11/13 10:54:29","9","0.49","9.654","67040","139.936959","patrol01","37.521606","1447379802545","20151113_105429","-0.361"
"2015/11/13 10:54:29","9","0.551","9.648","67041","139.936947","patrol01","37.521608","1447379802646","20151113_105429","-0.425"
"2015/11/13 10:54:29","9","0.556","9.681","67042","139.936936","patrol01","37.52161","1447379802746","20151113_105429","-0.465"
"2015/11/13 10:54:29","9","0.614","9.714","67043","139.936924","patrol01","37.521612","1447379802847","20151113_105429","-0.444"
"2015/11/13 10:54:29","9","0.662","9.729","67044","139.936913","patrol01","37.521614","1447379802943","20151113_105429","-0.344"
"2015/11/13 10:54:29","9","0.686","9.696","67045","139.936901","patrol01","37.521615","1447379803044","20151113_105429","-0.275"
"2015/11/13 10:54:29","9","0.718","9.667","67046","139.93689","patrol01","37.521617","1447379803144","20151113_105429","-0.228"
"2015/11/13 10:54:29","9","0.73","9.688","67047","139.936878","patrol01","37.521619","1447379803245","20151113_105429","-0.136"
"2015/11/13 10:54:29","7","0.694","9.627","67048","139.936866","patrol01","37.52162","1447379803346","20151113_105429","-0.052"
"2015/11/13 10:54:29","7","0.62","9.608","67049","139.936853","patrol01","37.521621","1447379803446","20151113_105429","-0.011"
"2015/11/13 10:54:29","7","0.656","9.625","67050","139.93684","patrol01","37.521621","1447379803547","20151113_105429","-0.001"
"2015/11/13 10:54:29","7","0.722","9.641","67051","139.936827","patrol01","37.521622","1447379803643","20151113_105429","0.082"
"2015/11/13 10:54:29","7","0.738","9.649","67052","139.936814","patrol01","37.521623","1447379803743","20151113_105429","0.131"
"2015/11/13 10:54:29","7","0.693","9.7","67053","139.9368","patrol01","37.521623","1447379803844","20151113_105429","0.139"
"2015/11/13 10:54:29","7","0.663","9.658","67054","139.936787","patrol01","37.521624","1447379803945","20151113_105429","0.16"
"2015/11/13 10:54:29","7","0.701","9.731","67055","139.936774","patrol01","37.521624","1447379804046","20151113_105429","0.138"
"2015/11/13 10:54:29","7","0.749","9.709","67056","139.936761","patrol01","37.521625","1447379804146","20151113_105429","0.153"
"2015/11/13 10:54:29","7","0.751","9.741","67057","139.936747","patrol01","37.521626","1447379804247","20151113_105429","0.146"
"2015/11/13 10:54:29","8","0.739","9.692","67058","139.936735","patrol01","37.521626","1447379804343","20151113_105429","0.14"
"2015/11/13 10:54:29","8","0.774","9.718","67059","139.936723","patrol01","37.521626","1447379804443","20151113_105429","0.174"
"2015/11/13 10:54:29","8","0.747","9.681","67060","139.936711","patrol01","37.521627","1447379804544","20151113_105429","0.13"
"2015/11/13 10:54:29","8","0.734","9.727","67061","139.936699","patrol01","37.521627","1447379804645","20151113_105429","0.173"
"2015/11/13 10:54:29","8","0.736","9.659","67062","139.936687","patrol01","37.521627","1447379804746","20151113_105429","0.182"
"2015/11/13 10:54:29","8","0.778","9.664","67063","139.936675","patrol01","37.521628","1447379804846","20151113_105429","0.183"
"2015/11/13 10:54:29","8","0.753","9.702","67064","139.936663","patrol01","37.521628","1447379804947","20151113_105429","0.14"
"2015/11/13 10:54:29","8","0.734","9.699","67065","139.936652","patrol01","37.521628","1447379805043","20151113_105429","0.114"
"2015/11/13 10:54:29","8","0.728","9.726","67066","139.93664","patrol01","37.521629","1447379805143","20151113_105429","0.114"
"2015/11/13 10:54:29","8","0.752","9.724","67067","139.936628","patrol01","37.521629","1447379805244","20151113_105429","0.064"
"2015/11/13 10:54:29","10","0.765","9.711","67068","139.936615","patrol01","37.52163","1447379805345","20151113_105429","0.089"
"2015/11/13 10:54:29","10","0.8","9.68","67069","139.936601","patrol01","37.521631","1447379805445","20151113_105429","0.037"
"2015/11/13 10:54:29","10","0.742","9.624","67070","139.936588","patrol01","37.521632","1447379805546","20151113_105429","-0.027"
"2015/11/13 10:54:29","10","0.716","9.663","67071","139.936574","patrol01","37.521633","1447379805647","20151113_105429","-0.082"
"2015/11/13 10:54:29","10","0.72","9.678","67072","139.93656","patrol01","37.521634","1447379805748","20151113_105429","-0.093"
"2015/11/13 10:54:29","10","0.747","9.651","67073","139.936547","patrol01","37.521636","1447379805843","20151113_105429","-0.074"
"2015/11/13 10:54:29","10","0.771","9.692","67074","139.936534","patrol01","37.521637","1447379805944","20151113_105429","-0.12"
"2015/11/13 10:54:29","10","0.757","9.677","67075","139.93652","patrol01","37.521638","1447379806045","20151113_105429","-0.123"
"2015/11/13 10:54:29","10","0.701","9.67","67076","139.936506","patrol01","37.521639","1447379806145","20151113_105429","-0.17"
"2015/11/13 10:54:29","10","0.697","9.702","67077","139.936492","patrol01","37.52164","1447379806247","20151113_105429","-0.136"
"2015/11/13 10:54:29","10","0.757","9.763","67078","139.93648","patrol01","37.521642","1447379806347","20151113_105429","-0.101"
"2015/11/13 10:54:29","10","0.707","9.653","67079","139.93647","patrol01","37.521646","1447379806447","20151113_105429","-0.124"
"2015/11/13 10:54:29","10","0.713","9.616","67080","139.93646","patrol01","37.521649","1447379806543","20151113_105429","-0.185"
"2015/11/13 10:54:29","10","0.826","9.691","67081","139.936449","patrol01","37.521652","1447379806644","20151113_105429","-0.176"
"2015/11/13 10:54:29","10","1.008","9.768","67082","139.936439","patrol01","37.521655","1447379806745","20151113_105429","-0.16"
"2015/11/13 10:54:29","10","1.075","9.752","67083","139.936428","patrol01","37.521658","1447379806845","20151113_105429","-0.14"
"2015/11/13 10:54:29","10","0.995","9.641","67084","139.936418","patrol01","37.521662","1447379806946","20151113_105429","-0.154"
"2015/11/13 10:54:29","10","0.992","9.662","67085","139.936407","patrol01","37.521665","1447379807047","20151113_105429","-0.12"
"2015/11/13 10:54:29","10","1.151","9.864","67086","139.936397","patrol01","37.521668","1447379807147","20151113_105429","-0.087"
"2015/11/13 10:54:29","10","1.152","9.907","67087","139.936387","patrol01","37.521671","1447379807243","20151113_105429","-0.076"
"2015/11/13 10:54:29","12","1.024","9.694","67088","139.936375","patrol01","37.521673","1447379807344","20151113_105429","0.042"
"2015/11/13 10:54:29","12","0.984","9.655","67089","139.936361","patrol01","37.521672","1447379807445","20151113_105429","0.013"
"2015/11/13 10:54:29","12","0.893","9.306","67090","139.936347","patrol01","37.521672","1447379807545","20151113_105429","0.078"
"2015/11/13 10:54:29","12","1.008","9.452","67091","139.936333","patrol01","37.521671","1447379807646","20151113_105429","0.026"
"2015/11/13 10:54:29","12","1.07","9.541","67092","139.936319","patrol01","37.52167","1447379807747","20151113_105429","-0.161"
"2015/11/13 10:54:29","12","0.902","9.613","67093","139.936305","patrol01","37.52167","1447379807847","20151113_105429","-0.255"
"2015/11/13 10:54:29","12","0.882","9.492","67094","139.936292","patrol01","37.521669","1447379807943","20151113_105429","-0.246"
"2015/11/13 10:54:29","12","0.948","9.554","67095","139.936278","patrol01","37.521669","1447379808044","20151113_105429","-0.189"
"2015/11/13 10:54:29","12","0.978","9.556","67096","139.936264","patrol01","37.521668","1447379808144","20151113_105429","-0.164"
"2015/11/13 10:54:29","12","0.978","9.548","67097","139.936251","patrol01","37.521667","1447379808245","20151113_105429","-0.149"
"2015/11/13 10:54:29","10","1.036","9.706","67098","139.936237","patrol01","37.521668","1447379808346","20151113_105429","-0.139"
"2015/11/13 10:54:29","10","1.016","9.803","67099","139.936225","patrol01","37.521669","1447379808447","20151113_105429","-0.152"
"2015/11/13 10:54:29","10","0.894","9.626","67100","139.936212","patrol01","37.521671","1447379808547","20151113_105429","-0.21"
"2015/11/13 10:54:29","10","0.867","9.58","67101","139.9362","patrol01","37.521673","1447379808643","20151113_105429","-0.237"
"2015/11/13 10:54:29","10","1.017","9.774","67102","139.936188","patrol01","37.521675","1447379808744","20151113_105429","-0.253"
"2015/11/13 10:54:29","10","0.984","9.876","67103","139.936175","patrol01","37.521676","1447379808844","20151113_105429","-0.187"
"2015/11/13 10:54:29","10","0.826","9.662","67104","139.936163","patrol01","37.521678","1447379808945","20151113_105429","-0.198"
"2015/11/13 10:54:29","10","0.815","9.414","67105","139.93615","patrol01","37.52168","1447379809046","20151113_105429","-0.224"
"2015/11/13 10:54:29","10","0.939","9.403","67106","139.936138","patrol01","37.521681","1447379809146","20151113_105429","-0.23"
"2015/11/13 10:54:29","10","0.997","9.554","67107","139.936125","patrol01","37.521683","1447379809248","20151113_105429","-0.243"
"2015/11/13 10:54:29","9","1.007","9.708","67108","139.936112","patrol01","37.521685","1447379809343","20151113_105429","-0.187"
"2015/11/13 10:54:29","9","0.92","9.8","67109","139.936097","patrol01","37.521686","1447379809444","20151113_105429","-0.15"
"2015/11/13 10:54:29","9","0.867","9.72","67110","139.936083","patrol01","37.521688","1447379809544","20151113_105429","-0.119"
"2015/11/13 10:54:29","9","0.93","9.656","67111","139.936068","patrol01","37.52169","1447379809645","20151113_105429","-0.084"
"2015/11/13 10:54:29","9","0.982","9.726","67112","139.936053","patrol01","37.521692","1447379809746","20151113_105429","-0.062"
"2015/11/13 10:54:29","9","0.972","9.711","67113","139.936038","patrol01","37.521693","1447379809846","20151113_105429","-0.067"
"2015/11/13 10:54:29","9","0.896","9.662","67114","139.936023","patrol01","37.521695","1447379809947","20151113_105429","-0.065"
"2015/11/13 10:54:29","9","0.837","9.58","67115","139.936009","patrol01","37.521697","1447379810043","20151113_105429","0.008"
"2015/11/13 10:54:29","9","0.911","9.697","67116","139.935994","patrol01","37.521698","1447379810143","20151113_105429","-0.046"
"2015/11/13 10:54:29","9","0.928","9.665","67117","139.935979","patrol01","37.5217","1447379810244","20151113_105429","-0.054"
"2015/11/13 10:54:29","11","0.95","9.58","67118","139.935964","patrol01","37.521701","1447379810345","20151113_105429","-0.072"
"2015/11/13 10:54:29","11","0.948","9.556","67119","139.93595","patrol01","37.521701","1447379810446","20151113_105429","-0.065"
"2015/11/13 10:54:29","11","0.946","9.551","67120","139.935935","patrol01","37.521701","1447379810546","20151113_105429","0.002"
"2015/11/13 10:54:29","11","0.955","9.636","67121","139.93592","patrol01","37.521701","1447379810647","20151113_105429","-0.027"
"2015/11/13 10:54:29","11","0.976","9.64","67122","139.935906","patrol01","37.521701","1447379810748","20151113_105429","0.009"
"2015/11/13 10:54:29","11","1.011","9.661","67123","139.935892","patrol01","37.521702","1447379810843","20151113_105429","-0.004"
"2015/11/13 10:54:29","11","1.014","9.754","67124","139.935877","patrol01","37.521702","1447379810949","20151113_105429","-0.037"
"2015/11/13 10:54:29","11","1.004","9.714","67125","139.935863","patrol01","37.521702","1447379811045","20151113_105429","-0.037"
"2015/11/13 10:54:29","11","0.963","9.661","67126","139.935848","patrol01","37.521702","1447379811144","20151113_105429","-0.088"
"2015/11/13 10:54:29","11","0.952","9.632","67127","139.935833","patrol01","37.521702","1447379811246","20151113_105429","-0.112"
"2015/11/13 10:54:29","11","0.964","9.607","67128","139.935819","patrol01","37.521703","1447379811345","20151113_105429","-0.081"
"2015/11/13 10:54:29","11","0.974","9.627","67129","139.935805","patrol01","37.521705","1447379811443","20151113_105429","-0.034"
"2015/11/13 10:54:29","11","0.998","9.724","67130","139.935791","patrol01","37.521707","1447379811543","20151113_105429","-0.064"
"2015/11/13 10:54:29","11","0.98","9.708","67131","139.935776","patrol01","37.521709","1447379811644","20151113_105429","-0.03"
"2015/11/13 10:54:29","11","0.954","9.651","67132","139.935762","patrol01","37.52171","1447379811745","20151113_105429","-0.08"
"2015/11/13 10:54:29","11","1.007","9.694","67133","139.935747","patrol01","37.521712","1447379811845","20151113_105429","-0.129"
"2015/11/13 10:54:29","11","0.98","9.594","67134","139.935733","patrol01","37.521714","1447379811946","20151113_105429","-0.111"
"2015/11/13 10:54:29","11","0.922","9.597","67135","139.935718","patrol01","37.521716","1447379812047","20151113_105429","-0.138"
"2015/11/13 10:54:29","11","0.981","9.673","67136","139.935704","patrol01","37.521718","1447379812148","20151113_105429","-0.149"
"2015/11/13 10:54:29","11","1.01","9.63","67137","139.93569","patrol01","37.52172","1447379812243","20151113_105429","-0.181"
"2015/11/13 10:54:29","11","1.045","9.708","67138","139.935675","patrol01","37.521722","1447379812344","20151113_105429","-0.291"
"2015/11/13 10:54:29","11","1.137","9.791","67139","139.935659","patrol01","37.521725","1447379812445","20151113_105429","-0.249"
"2015/11/13 10:54:29","11","1.049","9.685","67140","139.935643","patrol01","37.521728","1447379812545","20151113_105429","-0.246"
"2015/11/13 10:54:29","11","0.96","9.616","67141","139.935628","patrol01","37.521731","1447379812646","20151113_105429","-0.234"
"2015/11/13 10:54:29","11","1.021","9.724","67142","139.935612","patrol01","37.521734","1447379812747","20151113_105429","-0.214"
"2015/11/13 10:54:29","11","0.97","9.704","67143","139.935596","patrol01","37.521736","1447379812847","20151113_105429","-0.159"
"2015/11/13 10:54:29","11","0.919","9.707","67144","139.935581","patrol01","37.521739","1447379812943","20151113_105429","-0.091"
"2015/11/13 10:54:29","11","0.842","9.701","67145","139.935565","patrol01","37.521742","1447379813044","20151113_105429","-0.12"
"2015/11/13 10:54:29","11","0.819","9.694","67146","139.935549","patrol01","37.521745","1447379813145","20151113_105429","-0.126"
"2015/11/13 10:54:29","11","0.868","9.785","67147","139.935534","patrol01","37.521747","1447379813245","20151113_105429","-0.16"
"2015/11/13 10:54:29","12","0.805","9.691","67148","139.935518","patrol01","37.52175","1447379813346","20151113_105429","-0.213"
"2015/11/13 10:54:29","12","0.807","9.668","67149","139.935501","patrol01","37.521753","1447379813447","20151113_105429","-0.277"
"2015/11/13 10:54:29","12","0.799","9.791","67150","139.935484","patrol01","37.521756","1447379813547","20151113_105429","-0.288"
"2015/11/13 10:54:29","12","0.838","9.785","67151","139.935468","patrol01","37.521759","1447379813643","20151113_105429","-0.221"
"2015/11/13 10:54:29","12","0.788","9.671","67152","139.935452","patrol01","37.521762","1447379813744","20151113_105429","-0.221"
"2015/11/13 10:54:29","12","0.819","9.735","67153","139.935435","patrol01","37.521765","1447379813845","20151113_105429","-0.173"
"2015/11/13 10:54:29","12","0.811","9.672","67154","139.935418","patrol01","37.521768","1447379813945","20151113_105429","-0.157"
"2015/11/13 10:54:29","12","0.881","9.698","67155","139.935402","patrol01","37.521771","1447379814046","20151113_105429","-0.063"
"2015/11/13 10:54:29","12","0.892","9.72","67156","139.935385","patrol01","37.521774","1447379814147","20151113_105429","0.015"
"2015/11/13 10:54:29","12","0.852","9.679","67157","139.935368","patrol01","37.521777","1447379814247","20151113_105429","0.024"
"2015/11/13 10:54:29","12","0.84","9.684","67158","139.935355","patrol01","37.521777","1447379814343","20151113_105429","0.051"
"2015/11/13 10:54:29","12","0.807","9.614","67159","139.935343","patrol01","37.521773","1447379814444","20151113_105429","0.042"
"2015/11/13 10:54:29","12","0.812","9.568","67160","139.93533","patrol01","37.521768","1447379814544","20151113_105429","0.07"
"2015/11/13 10:54:29","12","0.825","9.59","67161","139.935318","patrol01","37.521764","1447379814645","20151113_105429","0.012"
"2015/11/13 10:54:29","12","0.875","9.599","67162","139.935306","patrol01","37.52176","1447379814746","20151113_105429","0.056"
"2015/11/13 10:54:29","12","0.886","9.617","67163","139.935294","patrol01","37.521755","1447379814847","20151113_105429","0.046"
"2015/11/13 10:54:29","12","0.871","9.603","67164","139.935282","patrol01","37.521751","1447379814947","20151113_105429","0.055"
"2015/11/13 10:54:29","12","0.959","9.677","67165","139.935271","patrol01","37.521747","1447379815043","20151113_105429","0.06"
"2015/11/13 10:54:29","12","0.977","9.712","67166","139.935259","patrol01","37.521743","1447379815144","20151113_105429","0.034"
"2015/11/13 10:54:29","12","0.978","9.769","67167","139.935247","patrol01","37.521738","1447379815244","20151113_105429","-0.017"
"2015/11/13 10:54:29","13","0.969","9.727","67168","139.935233","patrol01","37.521735","1447379815345","20151113_105429","-0.016"
"2015/11/13 10:54:29","13","1.033","9.692","67169","139.935218","patrol01","37.521732","1447379815446","20151113_105429","-0.004"
"2015/11/13 10:54:29","13","1.074","9.634","67170","139.935203","patrol01","37.521729","1447379815546","20151113_105429","-0.009"
"2015/11/13 10:54:29","13","1.122","9.559","67171","139.935187","patrol01","37.521727","1447379815647","20151113_105429","-0.027"
"2015/11/13 10:54:29","13","1.197","9.622","67172","139.935173","patrol01","37.521724","1447379815743","20151113_105429","-0.027"
"2015/11/13 10:54:29","13","1.22","9.58","67173","139.935158","patrol01","37.521721","1447379815844","20151113_105429","-0.004"
"2015/11/13 10:54:29","13","1.272","9.533","67174","139.935142","patrol01","37.521719","1447379815944","20151113_105429","0.094"
"2015/11/13 10:54:29","13","1.277","9.355","67175","139.935127","patrol01","37.521716","1447379816045","20151113_105429","-0.021"
"2015/11/13 10:54:29","13","1.352","9.419","67176","139.935112","patrol01","37.521713","1447379816146","20151113_105429","0.028"
"2015/11/13 10:54:29","13","1.488","9.677","67177","139.935097","patrol01","37.52171","1447379816246","20151113_105429","0.003"
"2015/11/13 10:54:29","9","1.437","9.853","67178","139.935082","patrol01","37.521707","1447379816347","20151113_105429","0.064"
"2015/11/13 10:54:29","9","1.371","9.842","67179","139.935068","patrol01","37.521704","1447379816443","20151113_105429","0.009"
"2015/11/13 10:54:29","9","1.416","9.708","67180","139.935053","patrol01","37.5217","1447379816544","20151113_105429","0.039"
"2015/11/13 10:54:29","9","1.436","9.576","67181","139.935038","patrol01","37.521697","1447379816644","20151113_105429","0.034"
"2015/11/13 10:54:29","9","1.502","9.567","67182","139.935023","patrol01","37.521693","1447379816745","20151113_105429","-0.02"
"2015/11/13 10:54:29","9","1.556","9.598","67183","139.935008","patrol01","37.521689","1447379816846","20151113_105429","-0.006"
"2015/11/13 10:54:29","9","1.551","9.663","67184","139.934994","patrol01","37.521686","1447379816946","20151113_105429","-0.037"
"2015/11/13 10:54:29","9","1.567","9.695","67185","139.934979","patrol01","37.521682","1447379817047","20151113_105429","-0.038"
"2015/11/13 10:54:29","9","1.489","9.614","67186","139.934965","patrol01","37.521679","1447379817143","20151113_105429","-0.084"
"2015/11/13 10:54:29","9","1.494","9.576","67187","139.93495","patrol01","37.521675","1447379817243","20151113_105429","-0.1"
"2015/11/13 10:54:29","9","1.559","9.611","67188","139.934935","patrol01","37.521672","1447379817344","20151113_105429","-0.059"
"2015/11/13 10:54:29","9","1.549","9.543","67189","139.934918","patrol01","37.52167","1447379817445","20151113_105429","-0.028"
"2015/11/13 10:54:29","9","1.516","9.595","67190","139.934902","patrol01","37.521667","1447379817545","20151113_105429","-0.071"
"2015/11/13 10:54:29","9","1.504","9.581","67191","139.934886","patrol01","37.521665","1447379817646","20151113_105429","-0.173"
"2015/11/13 10:54:29","9","1.477","9.518","67192","139.93487","patrol01","37.521663","1447379817747","20151113_105429","-0.259"
"2015/11/13 10:54:29","9","1.529","9.513","67193","139.934854","patrol01","37.521661","1447379817843","20151113_105429","-0.388"
"2015/11/13 10:54:29","9","1.591","9.542","67194","139.934838","patrol01","37.521658","1447379817943","20151113_105429","-0.446"
"2015/11/13 10:54:29","9","1.662","9.515","67195","139.934822","patrol01","37.521656","1447379818044","20151113_105429","-0.48"
"2015/11/13 10:54:29","9","1.706","9.421","67196","139.934805","patrol01","37.521654","1447379818145","20151113_105429","-0.574"
"2015/11/13 10:54:29","9","1.739","9.411","67197","139.934789","patrol01","37.521651","1447379818245","20151113_105429","-0.631"
"2015/11/13 10:54:29","10","1.863","9.493","67198","139.934773","patrol01","37.52165","1447379818346","20151113_105429","-0.638"
"2015/11/13 10:54:29","10","1.835","9.39","67199","139.934759","patrol01","37.52165","1447379818447","20151113_105429","-0.599"
"2015/11/13 10:54:29","10","1.809","9.35","67200","139.934744","patrol01","37.52165","1447379818548","20151113_105429","-0.529"
"2015/11/13 10:54:29","10","1.856","9.476","67201","139.93473","patrol01","37.521649","1447379818643","20151113_105429","-0.473"
"2015/11/13 10:54:29","10","1.824","9.539","67202","139.934715","patrol01","37.521649","1447379818744","20151113_105429","-0.514"
"2015/11/13 10:54:29","10","1.84","9.538","67203","139.9347","patrol01","37.521649","1447379818845","20151113_105429","-0.542"
"2015/11/13 10:54:29","10","1.867","9.569","67204","139.934686","patrol01","37.521649","1447379818945","20151113_105429","-0.504"
"2015/11/13 10:54:29","10","1.831","9.539","67205","139.934671","patrol01","37.521649","1447379819046","20151113_105429","-0.463"
"2015/11/13 10:54:29","10","1.764","9.558","67206","139.934656","patrol01","37.521648","1447379819147","20151113_105429","-0.454"
"2015/11/13 10:54:29","10","1.819","9.578","67207","139.934641","patrol01","37.521648","1447379819248","20151113_105429","-0.418"
"2015/11/13 10:54:29","9","1.801","9.51","67208","139.934629","patrol01","37.52165","1447379819343","20151113_105429","-0.423"
"2015/11/13 10:54:29","9","1.852","9.499","67209","139.934619","patrol01","37.521654","1447379819444","20151113_105429","-0.405"
"2015/11/13 10:54:29","9","2.038","9.555","67210","139.934609","patrol01","37.521657","1447379819545","20151113_105429","-0.447"
"2015/11/13 10:54:29","9","2.127","9.474","67211","139.934599","patrol01","37.521661","1447379819645","20151113_105429","-0.431"
"2015/11/13 10:54:29","9","2.202","9.459","67212","139.934589","patrol01","37.521665","1447379819746","20151113_105429","-0.45"
"2015/11/13 10:54:29","9","2.227","9.478","67213","139.934579","patrol01","37.521669","1447379819847","20151113_105429","-0.442"
"2015/11/13 10:54:29","9","2.308","9.485","67214","139.934569","patrol01","37.521673","1447379819947","20151113_105429","-0.409"
"2015/11/13 10:54:29","9","2.282","9.37","67215","139.934559","patrol01","37.521676","1447379820043","20151113_105429","-0.353"
"2015/11/13 10:54:29","9","2.319","9.452","67216","139.934549","patrol01","37.52168","1447379820144","20151113_105429","-0.352"
"2015/11/13 10:54:29","9","2.445","9.444","67217","139.934539","patrol01","37.521684","1447379820244","20151113_105429","-0.296"
"2015/11/13 10:54:29","10","2.555","9.442","67218","139.934529","patrol01","37.521687","1447379820345","20151113_105429","-0.275"
"2015/11/13 10:54:29","10","2.558","9.387","67219","139.934519","patrol01","37.52169","1447379820446","20151113_105429","-0.345"
"2015/11/13 10:54:29","10","2.637","9.397","67220","139.93451","patrol01","37.521692","1447379820547","20151113_105429","-0.339"
"2015/11/13 10:54:29","10","2.69","9.399","67221","139.9345","patrol01","37.521695","1447379820647","20151113_105429","-0.262"
"2015/11/13 10:54:29","10","2.728","9.391","67222","139.934491","patrol01","37.521698","1447379820743","20151113_105429","-0.282"
"2015/11/13 10:54:29","10","2.758","9.377","67223","139.934482","patrol01","37.5217","1447379820844","20151113_105429","-0.218"
"2015/11/13 10:54:29","10","2.778","9.435","67224","139.934472","patrol01","37.521703","1447379820944","20151113_105429","-0.241"
"2015/11/13 10:54:29","10","2.765","9.419","67225","139.934463","patrol01","37.521705","1447379821045","20151113_105429","-0.204"
"2015/11/13 10:54:29","10","2.726","9.401","67226","139.934453","patrol01","37.521708","1447379821146","20151113_105429","-0.178"
"2015/11/13 10:54:29","10","2.809","9.465","67227","139.934444","patrol01","37.521711","1447379821247","20151113_105429","-0.101"
"2015/11/13 10:54:29","9","2.866","9.425","67228","139.934433","patrol01","37.521711","1447379821347","20151113_105429","0.041"
"2015/11/13 10:54:29","9","2.906","9.437","67229","139.93442","patrol01","37.52171","1447379821443","20151113_105429","0.063"
"2015/11/13 10:54:29","9","2.992","9.57","67230","139.934407","patrol01","37.521709","1447379821544","20151113_105429","0.092"
"2015/11/13 10:54:29","9","2.923","9.367","67231","139.934394","patrol01","37.521707","1447379821644","20151113_105429","0.296"
"2015/11/13 10:54:29","9","2.924","9.229","67232","139.934381","patrol01","37.521706","1447379821745","20151113_105429","0.558"
"2015/11/13 10:54:29","9","3.02","9.329","67233","139.934368","patrol01","37.521705","1447379821846","20151113_105429","0.668"
"2015/11/13 10:54:29","9","3.071","9.245","67234","139.934355","patrol01","37.521704","1447379821946","20151113_105429","0.861"
"2015/11/13 10:54:29","9","3.054","9.181","67235","139.934342","patrol01","37.521702","1447379822047","20151113_105429","1.023"
"2015/11/13 10:54:29","9","3.155","9.314","67236","139.93433","patrol01","37.521701","1447379822143","20151113_105429","1.149"
"2015/11/13 10:54:29","9","3.212","9.534","67237","139.934317","patrol01","37.5217","1447379822244","20151113_105429","1.381"
"2015/11/13 10:54:29","9","3.097","9.333","67238","139.934307","patrol01","37.521699","1447379822344","20151113_105429","1.458"
"2015/11/13 10:54:29","9","3.071","9.182","67239","139.934301","patrol01","37.521699","1447379822445","20151113_105429","1.425"
"2015/11/13 10:54:29","9","3.136","9.382","67240","139.934295","patrol01","37.521699","1447379822546","20151113_105429","1.559"
"2015/11/13 10:54:29","9","3.238","9.489","67241","139.934289","patrol01","37.521699","1447379822646","20151113_105429","1.65"
"2015/11/13 10:54:29","9","3.057","9.126","67242","139.934283","patrol01","37.521699","1447379822747","20151113_105429","1.849"
"2015/11/13 10:54:29","9","2.994","9.194","67243","139.934277","patrol01","37.521699","1447379822843","20151113_105429","1.976"
"2015/11/13 10:54:29","9","2.942","9.341","67244","139.934271","patrol01","37.521699","1447379822943","20151113_105429","2.16"
"2015/11/13 10:54:29","9","3.012","9.347","67245","139.934265","patrol01","37.521699","1447379823044","20151113_105429","2.14"
"2015/11/13 10:54:29","9","2.709","9.331","67246","139.934259","patrol01","37.521699","1447379823145","20151113_105429","2.091"
"2015/11/13 10:54:29","9","2.284","9.259","67247","139.934252","patrol01","37.521699","1447379823246","20151113_105429","1.922"
"2015/11/13 10:54:29","8","2.115","9.417","67248","139.934246","patrol01","37.521698","1447379823346","20151113_105429","1.863"
"2015/11/13 10:54:29","8","2.083","9.477","67249","139.934238","patrol01","37.521695","1447379823447","20151113_105429","2.035"
"2015/11/13 10:54:29","8","2.108","9.513","67250","139.934231","patrol01","37.521692","1447379823543","20151113_105429","2.129"
"2015/11/13 10:54:29","8","2.154","9.557","67251","139.934223","patrol01","37.52169","1447379823643","20151113_105429","2.058"
"2015/11/13 10:54:29","8","2.062","9.508","67252","139.934216","patrol01","37.521687","1447379823744","20151113_105429","2.104"
"2015/11/13 10:54:29","8","2.038","9.612","67253","139.934208","patrol01","37.521684","1447379823845","20151113_105429","2.131"
"2015/11/13 10:54:29","8","2.01","9.51","67254","139.934201","patrol01","37.521682","1447379823945","20151113_105429","2.215"
"2015/11/13 10:54:29","8","1.908","9.43","67255","139.934193","patrol01","37.521679","1447379824046","20151113_105429","2.212"
"2015/11/13 10:54:29","8","1.97","9.404","67256","139.934185","patrol01","37.521676","1447379824147","20151113_105429","2.356"
"2015/11/13 10:54:29","8","2.037","9.516","67257","139.934178","patrol01","37.521673","1447379824243","20151113_105429","2.513"
"2015/11/13 10:54:29","7","1.996","9.588","67258","139.934172","patrol01","37.52167","1447379824343","20151113_105429","2.54"
"2015/11/13 10:54:29","7","1.864","9.636","67259","139.934167","patrol01","37.521666","1447379824444","20151113_105429","2.432"
"2015/11/13 10:54:29","7","1.7","9.57","67260","139.934162","patrol01","37.521662","1447379824545","20151113_105429","2.306"
"2015/11/13 10:54:29","7","1.561","9.529","67261","139.934157","patrol01","37.521658","1447379824645","20151113_105429","2.316"
"2015/11/13 10:54:29","7","1.466","9.593","67262","139.934152","patrol01","37.521654","1447379824746","20151113_105429","2.339"
"2015/11/13 10:54:29","7","1.46","9.703","67263","139.934147","patrol01","37.52165","1447379824847","20151113_105429","2.544"
"2015/11/13 10:54:29","7","1.311","9.642","67264","139.934142","patrol01","37.521646","1447379824943","20151113_105429","2.626"
"2015/11/13 10:54:29","7","1.164","9.579","67265","139.934137","patrol01","37.521641","1447379825048","20151113_105429","2.542"
"2015/11/13 10:54:29","7","1.126","9.68","67266","139.934133","patrol01","37.521637","1447379825144","20151113_105429","2.335"
"2015/11/13 10:54:29","7","0.94","9.526","67267","139.934128","patrol01","37.521633","1447379825243","20151113_105429","2.354"
"2015/11/13 10:54:29","7","1.002","9.709","67268","139.934124","patrol01","37.521628","1447379825345","20151113_105429","2.386"
"2015/11/13 10:54:29","7","0.968","9.569","67269","139.934122","patrol01","37.521622","1447379825444","20151113_105429","2.409"
"2015/11/13 10:54:29","7","0.861","9.451","67270","139.934119","patrol01","37.521616","1447379825546","20151113_105429","2.421"
"2015/11/13 10:54:29","7","0.857","9.394","67271","139.934117","patrol01","37.52161","1447379825645","20151113_105429","2.467"
"2015/11/13 10:54:29","7","0.897","9.596","67272","139.934115","patrol01","37.521604","1447379825747","20151113_105429","2.456"
"2015/11/13 10:54:29","7","0.793","9.511","67273","139.934113","patrol01","37.521598","1447379825843","20151113_105429","2.375"
"2015/11/13 10:54:29","7","0.799","9.645","67274","139.93411","patrol01","37.521592","1447379825944","20151113_105429","2.178"
"2015/11/13 10:54:29","7","0.77","9.656","67275","139.934108","patrol01","37.521586","1447379826044","20151113_105429","1.978"
"2015/11/13 10:54:29","7","0.641","9.554","67276","139.934106","patrol01","37.52158","1447379826145","20151113_105429","1.857"
"2015/11/13 10:54:29","7","0.639","9.623","67277","139.934103","patrol01","37.521574","1447379826246","20151113_105429","1.684"
"2015/11/13 10:54:29","6","0.521","9.536","67278","139.934102","patrol01","37.521569","1447379826346","20151113_105429","1.538"
"2015/11/13 10:54:29","6","0.444","9.527","67279","139.934102","patrol01","37.521564","1447379826447","20151113_105429","1.321"
"2015/11/13 10:54:29","6","0.466","9.654","67280","139.934102","patrol01","37.521559","1447379826543","20151113_105429","1.033"
"2015/11/13 10:54:29","6","0.514","9.91","67281","139.934102","patrol01","37.521555","1447379826643","20151113_105429","0.783"
"2015/11/13 10:54:29","6","0.493","9.988","67282","139.934102","patrol01","37.52155","1447379826744","20151113_105429","0.491"
"2015/11/13 10:54:29","6","0.401","9.795","67283","139.934101","patrol01","37.521545","1447379826845","20151113_105429","0.355"
"2015/11/13 10:54:29","6","0.279","9.717","67284","139.934101","patrol01","37.52154","1447379826946","20151113_105429","0.241"
"2015/11/13 10:54:29","6","0.166","9.868","67285","139.934101","patrol01","37.521535","1447379827046","20151113_105429","0.101"
"2015/11/13 10:54:29","6","0.171","9.972","67286","139.934101","patrol01","37.52153","1447379827147","20151113_105429","0.007"
"2015/11/13 10:54:29","6","0.121","9.893","67287","139.934101","patrol01","37.521526","1447379827243","20151113_105429","-0.062"
"2015/11/13 10:54:29","5","-0.053","9.765","67288","139.934101","patrol01","37.521521","1447379827344","20151113_105429","-0.153"
"2015/11/13 10:54:29","5","-0.098","9.756","67289","139.934101","patrol01","37.521517","1447379827445","20151113_105429","-0.314"
"2015/11/13 10:54:29","5","-0.021","9.826","67290","139.934101","patrol01","37.521512","1447379827545","20151113_105429","-0.384"
"2015/11/13 10:54:29","5","0.089","9.869","67291","139.934102","patrol01","37.521508","1447379827646","20151113_105429","-0.412"
"2015/11/13 10:54:29","5","0.096","9.815","67292","139.934102","patrol01","37.521503","1447379827746","20151113_105429","-0.274"
"2015/11/13 10:54:29","5","0.158","9.928","67293","139.934102","patrol01","37.521499","1447379827847","20151113_105429","-0.219"
"2015/11/13 10:54:29","5","0.095","9.838","67294","139.934102","patrol01","37.521495","1447379827943","20151113_105429","-0.229"
"2015/11/13 10:54:29","5","0.002","9.693","67295","139.934102","patrol01","37.52149","1447379828043","20151113_105429","-0.235"
"2015/11/13 10:54:29","5","-0.083","9.569","67296","139.934103","patrol01","37.521486","1447379828144","20151113_105429","-0.225"
"2015/11/13 10:54:29","5","-0.064","9.606","67297","139.934103","patrol01","37.521481","1447379828245","20151113_105429","-0.397"
"2015/11/13 10:54:29","7","-0.104","9.569","67298","139.934103","patrol01","37.521476","1447379828345","20151113_105429","-0.692"
"2015/11/13 10:54:29","7","0.21","10.154","67299","139.934103","patrol01","37.521468","1447379828446","20151113_105429","-0.587"
"2015/11/13 10:54:29","7","0.199","10.21","67300","139.934103","patrol01","37.521461","1447379828547","20151113_105429","-0.398"
"2015/11/13 10:54:29","7","0.087","9.665","67301","139.934103","patrol01","37.521454","1447379828643","20151113_105429","-0.361"
"2015/11/13 10:54:29","7","-0.344","9.497","67302","139.934103","patrol01","37.521447","1447379828743","20151113_105429","-0.287"
"2015/11/13 10:54:29","7","-0.24","9.642","67303","139.934102","patrol01","37.52144","1447379828844","20151113_105429","-0.21"
"2015/11/13 10:54:29","7","-0.062","9.618","67304","139.934102","patrol01","37.521432","1447379828945","20151113_105429","-0.135"
"2015/11/13 10:54:29","7","0.032","9.686","67305","139.934102","patrol01","37.521425","1447379829045","20151113_105429","-0.09"
"2015/11/13 10:54:29","7","-0.064","9.785","67306","139.934102","patrol01","37.521418","1447379829146","20151113_105429","-0.226"
"2015/11/13 10:54:29","7","-0.016","9.838","67307","139.934102","patrol01","37.521411","1447379829247","20151113_105429","-0.21"
"2015/11/13 10:54:29","4","0.086","9.842","67308","139.934102","patrol01","37.521403","1447379829347","20151113_105429","-0.134"
"2015/11/13 10:54:29","4","0.18","9.86","67309","139.934102","patrol01","37.521395","1447379829443","20151113_105429","-0.068"
"2015/11/13 10:54:29","4","0.261","9.976","67310","139.934102","patrol01","37.521388","1447379829544","20151113_105429","-0.07"
"2015/11/13 10:54:29","4","0.139","9.931","67311","139.934102","patrol01","37.52138","1447379829645","20151113_105429","-0.067"
"2015/11/13 10:54:29","4","0.087","9.804","67312","139.934102","patrol01","37.521372","1447379829745","20151113_105429","-0.06"
"2015/11/13 10:54:29","4","-0.001","9.784","67313","139.934103","patrol01","37.521364","1447379829846","20151113_105429","0.02"
"2015/11/13 10:54:29","4","0.0","9.658","67314","139.934103","patrol01","37.521356","1447379829947","20151113_105429","0.037"
"2015/11/13 10:54:29","4","0.22","9.759","67315","139.934103","patrol01","37.521348","1447379830047","20151113_105429","-0.061"
"2015/11/13 10:54:29","4","0.18","9.801","67316","139.934103","patrol01","37.52134","1447379830143","20151113_105429","-0.129"
"2015/11/13 10:54:29","4","0.118","9.796","67317","139.934103","patrol01","37.521332","1447379830244","20151113_105429","-0.236"
"2015/11/13 10:54:29","4","0.179","9.849","67318","139.934103","patrol01","37.521324","1447379830345","20151113_105429","-0.22"
"2015/11/13 10:54:29","4","0.097","9.768","67319","139.934102","patrol01","37.521315","1447379830445","20151113_105429","-0.264"
"2015/11/13 10:54:29","4","0.123","9.685","67320","139.934101","patrol01","37.521306","1447379830546","20151113_105429","-0.241"
"2015/11/13 10:54:29","4","0.142","9.721","67321","139.9341","patrol01","37.521297","1447379830647","20151113_105429","-0.268"
"2015/11/13 10:54:29","4","0.176","9.742","67322","139.934099","patrol01","37.521288","1447379830747","20151113_105429","-0.229"
"2015/11/13 10:54:29","4","0.171","9.622","67323","139.934098","patrol01","37.52128","1447379830844","20151113_105429","-0.204"
"2015/11/13 10:54:29","4","0.101","9.548","67324","139.934097","patrol01","37.521271","1447379830945","20151113_105429","-0.129"
"2015/11/13 10:54:29","4","0.249","9.749","67325","139.934096","patrol01","37.521262","1447379831045","20151113_105429","-0.176"
"2015/11/13 10:54:29","4","0.378","9.909","67326","139.934095","patrol01","37.521253","1447379831146","20151113_105429","-0.149"
"2015/11/13 10:54:29","4","0.426","9.8","67327","139.934094","patrol01","37.521244","1447379831247","20151113_105429","-0.117"
"2015/11/13 10:54:29","5","0.285","9.848","67328","139.934094","patrol01","37.521236","1447379831343","20151113_105429","-0.155"
"2015/11/13 10:54:29","5","0.263","9.806","67329","139.934093","patrol01","37.521226","1447379831443","20151113_105429","-0.185"
"2015/11/13 10:54:29","5","0.158","9.638","67330","139.934092","patrol01","37.521216","1447379831544","20151113_105429","-0.16"
"2015/11/13 10:54:29","5","0.224","9.65","67331","139.934091","patrol01","37.521206","1447379831645","20151113_105429","-0.162"
"2015/11/13 10:54:29","5","0.285","9.707","67332","139.93409","patrol01","37.521196","1447379831745","20151113_105429","-0.198"
"2015/11/13 10:54:29","5","0.333","9.883","67333","139.934089","patrol01","37.521186","1447379831846","20151113_105429","-0.216"
"2015/11/13 10:54:29","5","0.333","9.907","67334","139.934088","patrol01","37.521176","1447379831947","20151113_105429","-0.237"
"2015/11/13 10:54:29","5","0.25","9.848","67335","139.934087","patrol01","37.521167","1447379832047","20151113_105429","-0.189"
"2015/11/13 10:54:29","5","0.254","9.795","67336","139.934086","patrol01","37.521157","1447379832143","20151113_105429","-0.205"
"2015/11/13 10:54:29","5","0.239","9.792","67337","139.934085","patrol01","37.521147","1447379832244","20151113_105429","-0.309"
"2015/11/13 10:54:29","5","0.348","9.873","67338","139.934085","patrol01","37.521138","1447379832345","20151113_105429","-0.251"
"2015/11/13 10:54:29","5","0.399","9.984","67339","139.934084","patrol01","37.521128","1447379832445","20151113_105429","-0.276"
"2015/11/13 10:54:29","5","0.395","9.931","67340","139.934084","patrol01","37.521119","1447379832546","20151113_105429","-0.377"
"2015/11/13 10:54:29","5","0.32","9.851","67341","139.934084","patrol01","37.521109","1447379832647","20151113_105429","-0.387"
"2015/11/13 10:54:29","5","0.326","9.783","67342","139.934083","patrol01","37.5211","1447379832747","20151113_105429","-0.432"
"2015/11/13 10:54:29","5","0.35","9.656","67343","139.934083","patrol01","37.52109","1447379832847","20151113_105429","-0.352"
"2015/11/13 10:54:29","5","0.456","9.681","67344","139.934082","patrol01","37.521081","1447379832943","20151113_105429","-0.352"
"2015/11/13 10:54:29","5","0.434","9.671","67345","139.934082","patrol01","37.521072","1447379833043","20151113_105429","-0.405"
"2015/11/13 10:54:29","5","0.306","9.58","67346","139.934082","patrol01","37.521063","1447379833144","20151113_105429","-0.36"
"2015/11/13 10:54:29","5","0.307","9.643","67347","139.934081","patrol01","37.521053","1447379833245","20151113_105429","-0.357"
"2015/11/13 10:54:29","4","0.439","9.75","67348","139.93408","patrol01","37.521043","1447379833346","20151113_105429","-0.352"
"2015/11/13 10:54:29","4","0.384","9.71","67349","139.934079","patrol01","37.521033","1447379833446","20151113_105429","-0.391"
"2015/11/13 10:54:29","4","0.355","9.723","67350","139.934078","patrol01","37.521022","1447379833547","20151113_105429","-0.43"
"2015/11/13 10:54:29","4","0.51","9.781","67351","139.934077","patrol01","37.521012","1447379833643","20151113_105429","-0.489"
"2015/11/13 10:54:29","4","0.443","9.674","67352","139.934076","patrol01","37.521002","1447379833743","20151113_105429","-0.408"
"2015/11/13 10:54:29","4","0.5","9.828","67353","139.934074","patrol01","37.520991","1447379833844","20151113_105429","-0.358"
"2015/11/13 10:54:29","4","0.592","9.943","67354","139.934073","patrol01","37.520981","1447379833945","20151113_105429","-0.289"
"2015/11/13 10:54:29","4","0.555","9.961","67355","139.934072","patrol01","37.52097","1447379834046","20151113_105429","-0.215"
"2015/11/13 10:54:29","4","0.424","9.786","67356","139.934071","patrol01","37.52096","1447379834146","20151113_105429","-0.184"
"2015/11/13 10:54:29","4","0.345","9.684","67357","139.93407","patrol01","37.520949","1447379834247","20151113_105429","-0.111"
"2015/11/13 10:54:29","4","0.451","9.783","67358","139.934068","patrol01","37.520939","1447379834343","20151113_105429","-0.098"
"2015/11/13 10:54:29","4","0.434","9.728","67359","139.934067","patrol01","37.520928","1447379834443","20151113_105429","-0.16"
"2015/11/13 10:54:29","4","0.404","9.608","67360","139.934065","patrol01","37.520916","1447379834544","20151113_105429","-0.243"
"2015/11/13 10:54:29","4","0.554","9.723","67361","139.934063","patrol01","37.520905","1447379834645","20151113_105429","-0.261"
"2015/11/13 10:54:29","4","0.745","9.914","67362","139.934061","patrol01","37.520894","1447379834745","20151113_105429","-0.24"
"2015/11/13 10:54:29","4","0.628","9.852","67363","139.93406","patrol01","37.520883","1447379834846","20151113_105429","-0.275"
"2015/11/13 10:54:29","4","0.567","9.796","67364","139.934058","patrol01","37.520871","1447379834947","20151113_105429","-0.068"
"2015/11/13 10:54:29","4","0.491","9.691","67365","139.934056","patrol01","37.520861","1447379835043","20151113_105429","-0.063"
"2015/11/13 10:54:29","4","0.424","9.561","67366","139.934055","patrol01","37.520849","1447379835143","20151113_105429","-0.112"
"2015/11/13 10:54:29","4","0.445","9.575","67367","139.934053","patrol01","37.520838","1447379835244","20151113_105429","-0.088"
"2015/11/13 10:54:29","4","0.597","9.689","67368","139.934051","patrol01","37.520827","1447379835345","20151113_105429","-0.102"
"2015/11/13 10:54:29","4","0.571","9.56","67369","139.934048","patrol01","37.520816","1447379835445","20151113_105429","-0.015"
"2015/11/13 10:54:29","4","0.603","9.629","67370","139.934045","patrol01","37.520805","1447379835546","20151113_105429","0.012"
"2015/11/13 10:54:29","4","0.703","9.565","67371","139.934043","patrol01","37.520794","1447379835647","20151113_105429","0.197"
"2015/11/13 10:54:29","4","0.652","9.489","67372","139.93404","patrol01","37.520783","1447379835747","20151113_105429","0.248"
"2015/11/13 10:54:29","4","0.932","9.833","67373","139.934037","patrol01","37.520773","1447379835843","20151113_105429","0.316"
"2015/11/13 10:54:29","4","1.084","10.11","67374","139.934035","patrol01","37.520762","1447379835944","20151113_105429","0.306"
"2015/11/13 10:54:29","4","0.903","10.053","67375","139.934032","patrol01","37.520751","1447379836045","20151113_105429","0.273"
"2015/11/13 10:54:29","4","0.765","9.719","67376","139.934029","patrol01","37.52074","1447379836145","20151113_105429","0.216"
"2015/11/13 10:54:29","4","0.715","9.244","67377","139.934026","patrol01","37.520729","1447379836246","20151113_105429","0.289"
"2015/11/13 10:54:29","4","0.73","9.034","67378","139.934024","patrol01","37.520718","1447379836347","20151113_105429","0.4"
"2015/11/13 10:54:29","4","0.977","9.562","67379","139.934021","patrol01","37.520707","1447379836447","20151113_105429","0.356"
"2015/11/13 10:54:29","4","1.066","9.763","67380","139.934019","patrol01","37.520696","1447379836543","20151113_105429","0.428"
"2015/11/13 10:54:29","4","0.916","9.85","67381","139.934016","patrol01","37.520685","1447379836644","20151113_105429","0.492"
"2015/11/13 10:54:29","4","0.913","9.897","67382","139.934014","patrol01","37.520674","1447379836744","20151113_105429","0.449"
"2015/11/13 10:54:29","4","0.824","9.62","67383","139.934011","patrol01","37.520662","1447379836845","20151113_105429","0.403"
"2015/11/13 10:54:29","4","0.861","9.598","67384","139.934009","patrol01","37.520651","1447379836946","20151113_105429","0.297"
"2015/11/13 10:54:29","4","0.927","9.6","67385","139.934006","patrol01","37.52064","1447379837047","20151113_105429","0.314"
"2015/11/13 10:54:29","4","0.898","9.649","67386","139.934004","patrol01","37.520629","1447379837147","20151113_105429","0.262"
"2015/11/13 10:54:29","4","0.952","9.763","67387","139.934001","patrol01","37.520618","1447379837243","20151113_105429","0.275"
"2015/11/13 10:54:29","4","0.941","9.703","67388","139.933999","patrol01","37.520607","1447379837344","20151113_105429","0.255"
"2015/11/13 10:54:29","4","0.945","9.872","67389","139.933997","patrol01","37.520595","1447379837444","20151113_105429","0.237"
"2015/11/13 10:54:29","4","0.958","9.861","67390","139.933995","patrol01","37.520583","1447379837545","20151113_105429","0.187"
"2015/11/13 10:54:29","4","0.844","9.651","67391","139.933993","patrol01","37.520572","1447379837646","20151113_105429","0.183"
"2015/11/13 10:54:29","4","0.88","9.709","67392","139.933991","patrol01","37.52056","1447379837747","20151113_105429","0.171"
"2015/11/13 10:54:29","4","0.894","9.711","67393","139.933988","patrol01","37.520548","1447379837847","20151113_105429","0.134"
"2015/11/13 10:54:29","4","0.837","9.633","67394","139.933986","patrol01","37.520537","1447379837943","20151113_105429","0.099"
"2015/11/13 10:54:29","4","0.835","9.564","67395","139.933984","patrol01","37.520526","1447379838044","20151113_105429","0.049"
"2015/11/13 10:54:29","4","0.844","9.486","67396","139.933982","patrol01","37.520514","1447379838144","20151113_105429","0.053"
"2015/11/13 10:54:29","4","0.88","9.411","67397","139.93398","patrol01","37.520502","1447379838245","20151113_105429","0.012"
"2015/11/13 10:54:29","4","0.915","9.493","67398","139.933977","patrol01","37.520491","1447379838346","20151113_105429","-0.088"
"2015/11/13 10:54:29","4","1.005","9.708","67399","139.933974","patrol01","37.52048","1447379838446","20151113_105429","-0.153"
"2015/11/13 10:54:29","4","0.985","9.812","67400","139.93397","patrol01","37.520469","1447379838547","20151113_105429","-0.139"
"2015/11/13 10:54:29","4","0.947","9.927","67401","139.933967","patrol01","37.520459","1447379838643","20151113_105429","-0.177"
"2015/11/13 10:54:29","4","0.941","9.876","67402","139.933963","patrol01","37.520448","1447379838743","20151113_105429","-0.086"
"2015/11/13 10:54:29","4","0.819","9.558","67403","139.93396","patrol01","37.520437","1447379838844","20151113_105429","-0.004"
"2015/11/13 10:54:29","4","0.816","9.477","67404","139.933956","patrol01","37.520426","1447379838945","20151113_105429","0.004"
"2015/11/13 10:54:29","4","0.922","9.46","67405","139.933953","patrol01","37.520415","1447379839046","20151113_105429","0.075"
"2015/11/13 10:54:29","4","0.967","9.646","67406","139.933949","patrol01","37.520404","1447379839146","20151113_105429","0.03"
"2015/11/13 10:54:29","4","1.096","9.847","67407","139.933946","patrol01","37.520393","1447379839247","20151113_105429","0.053"
"2015/11/13 10:54:29","4","1.012","9.919","67408","139.933942","patrol01","37.520382","1447379839348","20151113_105429","0.089"
"2015/11/13 10:54:29","4","0.934","9.887","67409","139.933939","patrol01","37.520372","1447379839444","20151113_105429","0.071"
"2015/11/13 10:54:29","4","0.931","9.771","67410","139.933936","patrol01","37.520361","1447379839543","20151113_105429","0.063"
"2015/11/13 10:54:29","4","0.895","9.611","67411","139.933933","patrol01","37.52035","1447379839645","20151113_105429","0.12"
"2015/11/13 10:54:29","4","0.871","9.583","67412","139.933929","patrol01","37.520339","1447379839744","20151113_105429","0.04"
"2015/11/13 10:54:29","4","0.907","9.572","67413","139.933926","patrol01","37.520327","1447379839846","20151113_105429","0.004"
"2015/11/13 10:54:29","4","0.903","9.599","67414","139.933923","patrol01","37.520316","1447379839945","20151113_105429","-0.067"
"2015/11/13 10:54:29","4","0.919","9.676","67415","139.933919","patrol01","37.520305","1447379840043","20151113_105429","-0.017"
"2015/11/13 10:54:29","4","0.924","9.635","67416","139.933916","patrol01","37.520294","1447379840143","20151113_105429","-0.055"
"2015/11/13 10:54:29","4","0.89","9.591","67417","139.933913","patrol01","37.520283","1447379840244","20151113_105429","-0.001"
"2015/11/13 10:54:29","3","0.96","9.65","67418","139.933909","patrol01","37.520272","1447379840345","20151113_105429","-0.095"
"2015/11/13 10:54:29","3","0.949","9.575","67419","139.933904","patrol01","37.520262","1447379840445","20151113_105429","-0.118"
"2015/11/13 10:54:29","3","0.958","9.685","67420","139.933899","patrol01","37.520251","1447379840546","20151113_105429","-0.163"
"2015/11/13 10:54:29","3","1.048","9.825","67421","139.933894","patrol01","37.520241","1447379840647","20151113_105429","-0.133"
"2015/11/13 10:54:29","3","0.968","9.723","67422","139.933889","patrol01","37.520231","1447379840743","20151113_105429","-0.071"
"2015/11/13 10:54:29","3","0.903","9.599","67423","139.933884","patrol01","37.52022","1447379840843","20151113_105429","-0.075"
"2015/11/13 10:54:29","3","0.981","9.716","67424","139.933879","patrol01","37.520209","1447379840944","20151113_105429","-0.147"
"2015/11/13 10:54:29","3","1.089","9.897","67425","139.933874","patrol01","37.520199","1447379841045","20151113_105429","-0.162"
"2015/11/13 10:54:29","3","1.013","9.883","67426","139.933869","patrol01","37.520188","1447379841145","20151113_105429","-0.205"
"2015/11/13 10:54:29","3","0.836","9.592","67427","139.933864","patrol01","37.520178","1447379841246","20151113_105429","-0.146"
"2015/11/13 10:54:29","4","0.899","9.611","67428","139.933858","patrol01","37.520167","1447379841347","20151113_105429","-0.104"
"2015/11/13 10:54:29","4","0.965","9.585","67429","139.933853","patrol01","37.520156","1447379841443","20151113_105429","-0.06"
"2015/11/13 10:54:29","4","0.963","9.687","67430","139.933847","patrol01","37.520144","1447379841543","20151113_105429","0.054"
"2015/11/13 10:54:29","4","0.916","9.658","67431","139.933841","patrol01","37.520133","1447379841644","20151113_105429","0.023"
"2015/11/13 10:54:29","4","0.917","9.774","67432","139.933835","patrol01","37.520121","1447379841745","20151113_105429","-0.05"
"2015/11/13 10:54:29","4","0.853","9.357","67433","139.933829","patrol01","37.52011","1447379841845","20151113_105429","-0.007"
"2015/11/13 10:54:29","4","0.947","9.457","67434","139.933824","patrol01","37.520098","1447379841946","20151113_105429","0.049"
"2015/11/13 10:54:29","4","1.095","9.593","67435","139.933818","patrol01","37.520087","1447379842047","20151113_105429","0.027"
"2015/11/13 10:54:29","4","1.041","9.766","67436","139.933812","patrol01","37.520075","1447379842147","20151113_105429","0.122"
"2015/11/13 10:54:29","4","1.066","9.974","67437","139.933806","patrol01","37.520064","1447379842243","20151113_105429","0.139"
"2015/11/13 10:54:29","4","1.026","10.024","67438","139.9338","patrol01","37.520053","1447379842344","20151113_105429","0.169"
"2015/11/13 10:54:29","4","0.894","9.818","67439","139.933795","patrol01","37.520042","1447379842445","20151113_105429","0.208"
"2015/11/13 10:54:29","4","0.824","9.54","67440","139.933789","patrol01","37.520031","1447379842545","20151113_105429","0.133"
"2015/11/13 10:54:29","4","0.933","9.636","67441","139.933784","patrol01","37.520021","1447379842646","20151113_105429","0.11"
"2015/11/13 10:54:29","4","0.983","9.651","67442","139.933778","patrol01","37.52001","1447379842747","20151113_105429","0.042"
"2015/11/13 10:54:29","4","0.906","9.643","67443","139.933772","patrol01","37.519999","1447379842847","20151113_105429","0.003"
"2015/11/13 10:54:29","4","0.888","9.659","67444","139.933767","patrol01","37.519989","1447379842943","20151113_105429","-0.014"
"2015/11/13 10:54:29","4","0.893","9.673","67445","139.933761","patrol01","37.519978","1447379843044","20151113_105429","-0.01"
"2015/11/13 10:54:29","4","0.912","9.602","67446","139.933756","patrol01","37.519967","1447379843145","20151113_105429","-0.008"
"2015/11/13 10:54:29","4","0.927","9.618","67447","139.93375","patrol01","37.519956","1447379843245","20151113_105429","0.052"
"2015/11/13 10:54:29","4","0.994","9.685","67448","139.933745","patrol01","37.519945","1447379843346","20151113_105429","0.078"
"2015/11/13 10:54:29","4","0.93","9.747","67449","139.933739","patrol01","37.519935","1447379843447","20151113_105429","0.068"
"2015/11/13 10:54:29","4","0.885","9.631","67450","139.933733","patrol01","37.519925","1447379843547","20151113_105429","0.036"
"2015/11/13 10:54:29","4","0.892","9.662","67451","139.933728","patrol01","37.519915","1447379843643","20151113_105429","-0.019"
"2015/11/13 10:54:29","4","0.991","9.75","67452","139.933723","patrol01","37.519904","1447379843744","20151113_105429","-0.052"
"2015/11/13 10:54:29","4","0.958","9.663","67453","139.933717","patrol01","37.519894","1447379843844","20151113_105429","-0.007"
"2015/11/13 10:54:29","4","0.964","9.786","67454","139.933711","patrol01","37.519883","1447379843945","20151113_105429","0.024"
"2015/11/13 10:54:29","4","0.948","9.746","67455","139.933706","patrol01","37.519873","1447379844046","20151113_105429","0.024"
"2015/11/13 10:54:29","4","0.877","9.573","67456","139.9337","patrol01","37.519863","1447379844146","20151113_105429","-0.006"
"2015/11/13 10:54:29","4","0.927","9.583","67457","139.933695","patrol01","37.519852","1447379844247","20151113_105429","-0.035"
"2015/11/13 10:54:29","4","0.919","9.542","67458","139.933689","patrol01","37.519842","1447379844343","20151113_105429","-0.002"
"2015/11/13 10:54:29","4","0.971","9.74","67459","139.933684","patrol01","37.519832","1447379844444","20151113_105429","-0.001"
"2015/11/13 10:54:29","4","0.977","9.812","67460","139.933678","patrol01","37.519821","1447379844544","20151113_105429","-0.019"
"2015/11/13 10:54:29","4","0.928","9.753","67461","139.933673","patrol01","37.519811","1447379844645","20151113_105429","0.038"
"2015/11/13 10:54:29","4","0.961","9.765","67462","139.933667","patrol01","37.5198","1447379844746","20151113_105429","0.112"
"2015/11/13 10:54:29","4","0.971","9.838","67463","139.933661","patrol01","37.519789","1447379844846","20151113_105429","0.048"
"2015/11/13 10:54:29","4","0.934","9.757","67464","139.933656","patrol01","37.519779","1447379844947","20151113_105429","-0.014"
"2015/11/13 10:54:29","4","0.832","9.544","67465","139.93365","patrol01","37.519769","1447379845043","20151113_105429","-0.091"
"2015/11/13 10:54:29","4","0.831","9.49","67466","139.933645","patrol01","37.519758","1447379845144","20151113_105429","-0.145"
"2015/11/13 10:54:29","4","0.984","9.641","67467","139.933639","patrol01","37.519748","1447379845244","20151113_105429","-0.126"
"2015/11/13 10:54:29","4","1.005","9.672","67468","139.933633","patrol01","37.519737","1447379845345","20151113_105429","-0.083"
"2015/11/13 10:54:29","4","0.956","9.725","67469","139.933628","patrol01","37.519726","1447379845446","20151113_105429","-0.047"
"2015/11/13 10:54:29","4","1.008","9.782","67470","139.933622","patrol01","37.519715","1447379845546","20151113_105429","0.068"
"2015/11/13 10:54:29","4","1.005","9.671","67471","139.933616","patrol01","37.519704","1447379845647","20151113_105429","0.14"
"2015/11/13 10:54:29","4","0.884","9.485","67472","139.933611","patrol01","37.519694","1447379845743","20151113_105429","0.119"
"2015/11/13 10:54:29","4","1.12","9.682","67473","139.933605","patrol01","37.519683","1447379845843","20151113_105429","0.144"
"2015/11/13 10:54:29","4","1.086","9.812","67474","139.933599","patrol01","37.519672","1447379845944","20151113_105429","0.173"
"2015/11/13 10:54:29","4","1.039","9.833","67475","139.933593","patrol01","37.519661","1447379846045","20151113_105429","0.157"
"2015/11/13 10:54:29","4","0.995","9.869","67476","139.933588","patrol01","37.51965","1447379846146","20151113_105429","0.131"
"2015/11/13 10:54:29","4","0.963","9.742","67477","139.933582","patrol01","37.519639","1447379846246","20151113_105429","0.109"
"2015/11/13 10:54:29","3","0.864","9.569","67478","139.933576","patrol01","37.519629","1447379846347","20151113_105429","0.101"
"2015/11/13 10:54:29","3","0.896","9.549","67479","139.93357","patrol01","37.519618","1447379846443","20151113_105429","0.005"
"2015/11/13 10:54:29","3","1.032","9.709","67480","139.933564","patrol01","37.519607","1447379846543","20151113_105429","-0.018"
"2015/11/13 10:54:29","3","0.996","9.737","67481","139.933558","patrol01","37.519596","1447379846644","20151113_105429","-0.001"
"2015/11/13 10:54:29","3","0.953","9.755","67482","139.933552","patrol01","37.519585","1447379846745","20151113_105429","0.111"
"2015/11/13 10:54:29","3","0.99","9.829","67483","139.933546","patrol01","37.519574","1447379846846","20151113_105429","0.175"
"2015/11/13 10:54:29","3","1.054","10.0","67484","139.933539","patrol01","37.519563","1447379846946","20151113_105429","0.125"
"2015/11/13 10:54:29","3","0.963","10.033","67485","139.933533","patrol01","37.519552","1447379847047","20151113_105429","0.151"
"2015/11/13 10:54:29","3","0.646","9.377","67486","139.933528","patrol01","37.519542","1447379847143","20151113_105429","0.082"
"2015/11/13 10:54:29","3","0.721","9.265","67487","139.933521","patrol01","37.519531","1447379847243","20151113_105429","0.018"
"2015/11/13 10:54:29","4","1.071","9.449","67488","139.933516","patrol01","37.51952","1447379847344","20151113_105429","-0.021"
"2015/11/13 10:54:29","4","1.028","9.615","67489","139.933511","patrol01","37.519509","1447379847445","20151113_105429","0.099"
"2015/11/13 10:54:29","4","0.966","9.718","67490","139.933506","patrol01","37.519497","1447379847545","20151113_105429","0.197"
"2015/11/13 10:54:29","4","0.926","9.736","67491","139.933501","patrol01","37.519486","1447379847646","20151113_105429","0.201"
"2015/11/13 10:54:29","4","0.912","9.55","67492","139.933496","patrol01","37.519474","1447379847747","20151113_105429","0.225"
"2015/11/13 10:54:29","4","0.889","9.43","67493","139.933491","patrol01","37.519463","1447379847848","20151113_105429","0.128"
"2015/11/13 10:54:29","4","0.901","9.35","67494","139.933486","patrol01","37.519452","1447379847943","20151113_105429","0.141"
"2015/11/13 10:54:29","4","0.962","9.516","67495","139.933481","patrol01","37.519441","1447379848044","20151113_105429","0.148"
"2015/11/13 10:54:29","4","0.982","9.697","67496","139.933476","patrol01","37.51943","1447379848145","20151113_105429","0.139"
"2015/11/13 10:54:29","4","0.956","9.795","67497","139.933471","patrol01","37.519418","1447379848245","20151113_105429","0.129"
"2015/11/13 10:54:29","4","0.917","9.775","67498","139.933466","patrol01","37.519407","1447379848346","20151113_105429","0.145"
"2015/11/13 10:54:29","4","0.935","9.783","67499","139.93346","patrol01","37.519396","1447379848447","20151113_105429","0.105"
"2015/11/13 10:54:29","4","0.985","9.948","67500","139.933455","patrol01","37.519384","1447379848548","20151113_105429","0.062"
"2015/11/13 10:54:29","4","0.933","9.925","67501","139.933449","patrol01","37.519374","1447379848643","20151113_105429","-0.001"
"2015/11/13 10:54:29","4","0.863","9.804","67502","139.933444","patrol01","37.519362","1447379848744","20151113_105429","0.01"
"2015/11/13 10:54:29","4","0.922","9.87","67503","139.933439","patrol01","37.519351","1447379848845","20151113_105429","-0.01"
"2015/11/13 10:54:29","4","0.905","9.725","67504","139.933433","patrol01","37.51934","1447379848945","20151113_105429","0.026"
"2015/11/13 10:54:29","4","0.925","9.746","67505","139.933428","patrol01","37.519328","1447379849046","20151113_105429","0.036"
"2015/11/13 10:54:29","4","0.869","9.732","67506","139.933422","patrol01","37.519317","1447379849147","20151113_105429","0.01"
"2015/11/13 10:54:29","4","0.831","9.786","67507","139.933417","patrol01","37.519306","1447379849247","20151113_105429","-0.029"
"2015/11/13 10:54:29","4","0.731","9.581","67508","139.933412","patrol01","37.519295","1447379849343","20151113_105429","-0.043"
"2015/11/13 10:54:29","4","0.819","9.638","67509","139.933408","patrol01","37.519283","1447379849444","20151113_105429","-0.064"
"2015/11/13 10:54:29","4","0.884","9.671","67510","139.933404","patrol01","37.519272","1447379849544","20151113_105429","-0.083"
"2015/11/13 10:54:29","4","0.794","9.653","67511","139.9334","patrol01","37.51926","1447379849645","20151113_105429","-0.064"
"2015/11/13 10:54:29","4","0.829","9.717","67512","139.933396","patrol01","37.519249","1447379849746","20151113_105429","0.03"
"2015/11/13 10:54:29","4","0.859","9.677","67513","139.933392","patrol01","37.519237","1447379849847","20151113_105429","-0.027"
"2015/11/13 10:54:29","4","0.875","9.665","67514","139.933388","patrol01","37.519225","1447379849947","20151113_105429","0.02"
"2015/11/13 10:54:29","4","0.875","9.79","67515","139.933384","patrol01","37.519214","1447379850043","20151113_105429","-0.048"
"2015/11/13 10:54:29","4","0.818","9.721","67516","139.93338","patrol01","37.519203","1447379850144","20151113_105429","-0.008"
"2015/11/13 10:54:29","4","0.805","9.696","67517","139.933376","patrol01","37.519191","1447379850244","20151113_105429","-0.011"
"2015/11/13 10:54:29","3","0.764","9.6","67518","139.933372","patrol01","37.51918","1447379850345","20151113_105429","-0.019"
"2015/11/13 10:54:29","3","0.824","9.612","67519","139.933368","patrol01","37.519168","1447379850446","20151113_105429","-0.005"
"2015/11/13 10:54:29","3","0.903","9.815","67520","139.933364","patrol01","37.519156","1447379850547","20151113_105429","-0.031"
"2015/11/13 10:54:29","3","0.879","9.796","67521","139.93336","patrol01","37.519144","1447379850647","20151113_105429","0.005"
"2015/11/13 10:54:29","3","0.774","9.699","67522","139.933356","patrol01","37.519133","1447379850743","20151113_105429","-0.01"
"2015/11/13 10:54:29","3","0.8","9.749","67523","139.933352","patrol01","37.519121","1447379850844","20151113_105429","-0.005"
"2015/11/13 10:54:29","3","0.821","9.718","67524","139.933347","patrol01","37.519109","1447379850944","20151113_105429","-0.016"
"2015/11/13 10:54:29","3","0.787","9.627","67525","139.933343","patrol01","37.519098","1447379851045","20151113_105429","0.059"
"2015/11/13 10:54:29","3","0.77","9.583","67526","139.933339","patrol01","37.519086","1447379851146","20151113_105429","0.097"
"2015/11/13 10:54:29","3","0.775","9.599","67527","139.933335","patrol01","37.519074","1447379851246","20151113_105429","0.112"
"2015/11/13 10:54:29","3","0.803","9.587","67528","139.933331","patrol01","37.519063","1447379851347","20151113_105429","0.116"
"2015/11/13 10:54:29","3","0.913","9.746","67529","139.933329","patrol01","37.519052","1447379851443","20151113_105429","0.206"
"2015/11/13 10:54:29","3","0.948","9.889","67530","139.933326","patrol01","37.519041","1447379851543","20151113_105429","0.301"
"2015/11/13 10:54:29","3","0.81","9.796","67531","139.933323","patrol01","37.51903","1447379851644","20151113_105429","0.301"
"2015/11/13 10:54:29","3","0.777","9.714","67532","139.93332","patrol01","37.519019","1447379851745","20151113_105429","0.449"
"2015/11/13 10:54:29","3","0.797","9.6","67533","139.933317","patrol01","37.519008","1447379851846","20151113_105429","0.379"
"2015/11/13 10:54:29","3","0.799","9.624","67534","139.933314","patrol01","37.518997","1447379851946","20151113_105429","0.402"
"2015/11/13 10:54:29","3","0.841","9.716","67535","139.933311","patrol01","37.518986","1447379852047","20151113_105429","0.379"
"2015/11/13 10:54:29","3","0.796","9.679","67536","139.933308","patrol01","37.518976","1447379852143","20151113_105429","0.364"
"2015/11/13 10:54:29","3","0.832","9.679","67537","139.933305","patrol01","37.518965","1447379852243","20151113_105429","0.35"
"2015/11/13 10:54:29","4","0.878","9.726","67538","139.933302","patrol01","37.518953","1447379852344","20151113_105429","0.227"
"2015/11/13 10:54:29","4","0.853","9.686","67539","139.9333","patrol01","37.518941","1447379852445","20151113_105429","0.243"
"2015/11/13 10:54:29","4","0.863","9.748","67540","139.933298","patrol01","37.518928","1447379852546","20151113_105429","0.259"
"2015/11/13 10:54:29","4","0.78","9.694","67541","139.933296","patrol01","37.518916","1447379852646","20151113_105429","0.253"
"2015/11/13 10:54:29","4","0.842","9.66","67542","139.933294","patrol01","37.518904","1447379852747","20151113_105429","0.359"
"2015/11/13 10:54:29","4","0.822","9.57","67543","139.933292","patrol01","37.518892","1447379852843","20151113_105429","0.375"
"2015/11/13 10:54:29","4","0.8","9.619","67544","139.933289","patrol01","37.518879","1447379852943","20151113_105429","0.374"
"2015/11/13 10:54:29","4","0.827","9.682","67545","139.933287","patrol01","37.518867","1447379853044","20151113_105429","0.312"
"2015/11/13 10:54:29","4","0.802","9.689","67546","139.933285","patrol01","37.518854","1447379853145","20151113_105429","0.295"
"2015/11/13 10:54:29","4","0.816","9.75","67547","139.933283","patrol01","37.518842","1447379853246","20151113_105429","0.221"
"2015/11/13 10:54:29","3","0.796","9.637","67548","139.933281","patrol01","37.518829","1447379853346","20151113_105429","0.251"
"2015/11/13 10:54:29","3","0.762","9.56","67549","139.933279","patrol01","37.518817","1447379853447","20151113_105429","0.29"
"2015/11/13 10:54:29","3","0.842","9.747","67550","139.933277","patrol01","37.518805","1447379853543","20151113_105429","0.282"
"2015/11/13 10:54:29","3","0.849","9.843","67551","139.933275","patrol01","37.518792","1447379853648","20151113_105429","0.195"
"2015/11/13 10:54:29","3","0.802","9.819","67552","139.933273","patrol01","37.518781","1447379853744","20151113_105429","0.14"
"2015/11/13 10:54:29","3","0.795","9.701","67553","139.933271","patrol01","37.518769","1447379853843","20151113_105429","0.086"
"2015/11/13 10:54:29","3","0.831","9.742","67554","139.933269","patrol01","37.518756","1447379853945","20151113_105429","0.003"
"2015/11/13 10:54:29","3","0.848","9.839","67555","139.933267","patrol01","37.518744","1447379854044","20151113_105429","-0.056"
"2015/11/13 10:54:29","3","0.783","9.698","67556","139.933265","patrol01","37.518731","1447379854147","20151113_105429","-0.033"
"2015/11/13 10:54:29","3","0.716","9.591","67557","139.933263","patrol01","37.51872","1447379854243","20151113_105429","0.024"
"2015/11/13 10:54:29","3","0.818","9.653","67558","139.933262","patrol01","37.518708","1447379854343","20151113_105429","0.085"
"2015/11/13 10:54:29","3","0.853","9.73","67559","139.93326","patrol01","37.518696","1447379854444","20151113_105429","0.085"
"2015/11/13 10:54:29","3","0.878","9.789","67560","139.933259","patrol01","37.518684","1447379854545","20151113_105429","0.207"
"2015/11/13 10:54:29","3","0.857","9.816","67561","139.933258","patrol01","37.518672","1447379854645","20151113_105429","0.276"
"2015/11/13 10:54:29","3","0.787","9.651","67562","139.933257","patrol01","37.51866","1447379854746","20151113_105429","0.263"
"2015/11/13 10:54:29","3","0.772","9.642","67563","139.933256","patrol01","37.518648","1447379854847","20151113_105429","0.196"
"2015/11/13 10:54:29","3","0.866","9.734","67564","139.933255","patrol01","37.518636","1447379854947","20151113_105429","0.204"
"2015/11/13 10:54:29","3","0.815","9.703","67565","139.933254","patrol01","37.518625","1447379855043","20151113_105429","0.124"
"2015/11/13 10:54:29","3","0.815","9.773","67566","139.933253","patrol01","37.518613","1447379855144","20151113_105429","0.005"
"2015/11/13 10:54:29","3","0.931","10.015","67567","139.933252","patrol01","37.518601","1447379855245","20151113_105429","-0.097"
"2015/11/13 10:54:29","3","0.84","9.882","67568","139.933251","patrol01","37.518589","1447379855345","20151113_105429","-0.136"
"2015/11/13 10:54:29","3","0.746","9.674","67569","139.933249","patrol01","37.518576","1447379855446","20151113_105429","-0.107"
"2015/11/13 10:54:29","3","0.741","9.548","67570","139.933248","patrol01","37.518564","1447379855547","20151113_105429","-0.116"
"2015/11/13 10:54:29","3","0.75","9.468","67571","139.933247","patrol01","37.518552","1447379855647","20151113_105429","-0.051"
"2015/11/13 10:54:29","3","0.748","9.377","67572","139.933246","patrol01","37.51854","1447379855743","20151113_105429","-0.044"
"2015/11/13 10:54:29","3","0.794","9.526","67573","139.933245","patrol01","37.518528","1447379855844","20151113_105429","-0.071"
"2015/11/13 10:54:29","3","0.847","9.61","67574","139.933244","patrol01","37.518516","1447379855944","20151113_105429","-0.045"
"2015/11/13 10:54:29","3","0.876","9.751","67575","139.933243","patrol01","37.518504","1447379856045","20151113_105429","-0.042"
"2015/11/13 10:54:29","3","0.924","9.742","67576","139.933242","patrol01","37.518491","1447379856146","20151113_105429","-0.102"
"2015/11/13 10:54:29","3","0.893","9.627","67577","139.933241","patrol01","37.518479","1447379856247","20151113_105429","-0.055"
"2015/11/13 10:54:29","3","1.103","9.692","67578","139.93324","patrol01","37.518468","1447379856347","20151113_105429","-0.158"
"2015/11/13 10:54:29","3","1.229","9.775","67579","139.933239","patrol01","37.518458","1447379856443","20151113_105429","-0.179"
"2015/11/13 10:54:29","3","1.204","9.69","67580","139.933238","patrol01","37.518447","1447379856544","20151113_105429","-0.169"
"2015/11/13 10:54:29","3","1.167","9.543","67581","139.933237","patrol01","37.518436","1447379856644","20151113_105429","-0.085"
"2015/11/13 10:54:29","3","1.229","9.454","67582","139.933236","patrol01","37.518426","1447379856745","20151113_105429","-0.081"
"2015/11/13 10:54:29","3","1.414","9.678","67583","139.933235","patrol01","37.518415","1447379856846","20151113_105429","-0.144"
"2015/11/13 10:54:29","3","1.403","9.747","67584","139.933234","patrol01","37.518404","1447379856947","20151113_105429","-0.248"
"2015/11/13 10:54:29","3","1.299","9.649","67585","139.933233","patrol01","37.518394","1447379857043","20151113_105429","-0.244"
"2015/11/13 10:54:29","3","1.298","9.601","67586","139.933232","patrol01","37.518384","1447379857143","20151113_105429","-0.323"
"2015/11/13 10:54:29","3","1.251","9.338","67587","139.933231","patrol01","37.518373","1447379857244","20151113_105429","-0.31"
"2015/11/13 10:54:29","4","1.325","9.242","67588","139.933231","patrol01","37.518362","1447379857344","20151113_105429","-0.28"
"2015/11/13 10:54:29","4","1.464","9.333","67589","139.933232","patrol01","37.518351","1447379857445","20151113_105429","-0.228"
"2015/11/13 10:54:29","4","1.501","9.629","67590","139.933233","patrol01","37.51834","1447379857546","20151113_105429","-0.147"
"2015/11/13 10:54:29","4","1.469","9.692","67591","139.933233","patrol01","37.518329","1447379857646","20151113_105429","-0.127"
"2015/11/13 10:54:29","4","1.469","9.839","67592","139.933234","patrol01","37.518318","1447379857747","20151113_105429","-0.15"
"2015/11/13 10:54:29","4","1.482","9.809","67593","139.933235","patrol01","37.518307","1447379857843","20151113_105429","-0.126"
"2015/11/13 10:54:29","4","1.526","9.767","67594","139.933236","patrol01","37.518296","1447379857944","20151113_105429","-0.188"
"2015/11/13 10:54:29","4","1.536","9.811","67595","139.933236","patrol01","37.518285","1447379858044","20151113_105429","-0.186"
"2015/11/13 10:54:29","4","1.528","9.834","67596","139.933237","patrol01","37.518274","1447379858145","20151113_105429","-0.254"
"2015/11/13 10:54:29","4","1.421","9.57","67597","139.933238","patrol01","37.518263","1447379858246","20151113_105429","-0.197"
"2015/11/13 10:54:29","3","1.511","9.502","67598","139.933238","patrol01","37.518252","1447379858346","20151113_105429","-0.096"
"2015/11/13 10:54:29","3","1.584","9.489","67599","139.933238","patrol01","37.518242","1447379858447","20151113_105429","-0.005"
"2015/11/13 10:54:29","3","1.505","9.497","67600","139.933238","patrol01","37.518232","1447379858543","20151113_105429","0.001"
"2015/11/13 10:54:29","3","1.493","9.533","67601","139.933238","patrol01","37.518221","1447379858643","20151113_105429","0.057"
"2015/11/13 10:54:29","3","1.367","9.337","67602","139.933238","patrol01","37.518211","1447379858744","20151113_105429","-0.244"
"2015/11/13 10:54:29","3","1.222","9.031","67603","139.933239","patrol01","37.518201","1447379858845","20151113_105429","-0.418"
"2015/11/13 10:54:29","3","1.551","9.166","67604","139.933239","patrol01","37.51819","1447379858946","20151113_105429","-0.518"
"2015/11/13 10:54:29","3","1.921","9.824","67605","139.933239","patrol01","37.51818","1447379859046","20151113_105429","-0.461"
"2015/11/13 10:54:29","3","1.874","10.071","67606","139.933239","patrol01","37.518169","1447379859147","20151113_105429","-0.371"
"2015/11/13 10:54:29","3","1.71","10.233","67607","139.933239","patrol01","37.518159","1447379859243","20151113_105429","-0.314"
"2015/11/13 10:54:29","3","1.694","10.151","67608","139.933239","patrol01","37.518149","1447379859343","20151113_105429","-0.156"
"2015/11/13 10:54:29","3","1.364","9.39","67609","139.933238","patrol01","37.518139","1447379859444","20151113_105429","-0.14"
"2015/11/13 10:54:29","3","1.359","9.228","67610","139.933237","patrol01","37.518129","1447379859545","20151113_105429","-0.021"
"2015/11/13 10:54:29","3","1.563","9.231","67611","139.933237","patrol01","37.518118","1447379859646","20151113_105429","0.038"
"2015/11/13 10:54:29","3","1.545","9.276","67612","139.933236","patrol01","37.518108","1447379859746","20151113_105429","0.036"
"2015/11/13 10:54:29","3","1.483","9.347","67613","139.933236","patrol01","37.518098","1447379859847","20151113_105429","0.152"
"2015/11/13 10:54:29","3","1.532","9.526","67614","139.933235","patrol01","37.518089","1447379859943","20151113_105429","0.246"
"2015/11/13 10:54:29","3","1.574","9.621","67615","139.933235","patrol01","37.518078","1447379860043","20151113_105429","0.208"
"2015/11/13 10:54:29","3","1.586","9.724","67616","139.933234","patrol01","37.518068","1447379860144","20151113_105429","0.222"
"2015/11/13 10:54:29","3","1.551","9.675","67617","139.933233","patrol01","37.518058","1447379860245","20151113_105429","0.13"
"2015/11/13 10:54:29","3","1.412","9.419","67618","139.933233","patrol01","37.518048","1447379860345","20151113_105429","0.062"
"2015/11/13 10:54:29","3","1.48","9.518","67619","139.933233","patrol01","37.518039","1447379860446","20151113_105429","0.057"
"2015/11/13 10:54:29","3","1.478","9.646","67620","139.933233","patrol01","37.518029","1447379860547","20151113_105429","0.057"
"2015/11/13 10:54:29","3","1.484","9.865","67621","139.933233","patrol01","37.51802","1447379860643","20151113_105429","0.066"
"2015/11/13 10:54:29","3","1.428","9.874","67622","139.933233","patrol01","37.51801","1447379860743","20151113_105429","0.075"
"2015/11/13 10:54:29","3","1.344","9.925","67623","139.933232","patrol01","37.518001","1447379860844","20151113_105429","0.0"
"2015/11/13 10:54:29","3","1.13","9.791","67624","139.933232","patrol01","37.517991","1447379860945","20151113_105429","-0.001"
"2015/11/13 10:54:29","3","1.029","9.58","67625","139.933232","patrol01","37.517982","1447379861045","20151113_105429","-0.073"
"2015/11/13 10:54:29","3","0.87","9.216","67626","139.933232","patrol01","37.517972","1447379861146","20151113_105429","-0.099"
"2015/11/13 10:54:29","3","0.896","9.307","67627","139.933232","patrol01","37.517963","1447379861247","20151113_105429","0.007"
"2015/11/13 10:54:29","4","0.977","9.267","67628","139.933232","patrol01","37.517953","1447379861347","20151113_105429","0.023"
"2015/11/13 10:54:29","4","1.192","9.618","67629","139.933232","patrol01","37.517945","1447379861443","20151113_105429","0.065"
"2015/11/13 10:54:29","4","1.251","9.942","67630","139.933232","patrol01","37.517936","1447379861544","20151113_105429","0.051"
"2015/11/13 10:54:29","4","0.944","9.803","67631","139.933233","patrol01","37.517927","1447379861645","20151113_105429","-0.063"
"2015/11/13 10:54:29","4","0.888","9.674","67632","139.933233","patrol01","37.517918","1447379861745","20151113_105429","-0.103"
"2015/11/13 10:54:29","4","0.696","9.169","67633","139.933233","patrol01","37.517909","1447379861846","20151113_105429","-0.223"
"2015/11/13 10:54:29","4","0.773","8.86","67634","139.933233","patrol01","37.5179","1447379861947","20151113_105429","-0.315"
"2015/11/13 10:54:29","4","0.906","8.858","67635","139.933234","patrol01","37.517891","1447379862047","20151113_105429","-0.352"
"2015/11/13 10:54:29","4","1.085","8.974","67636","139.933234","patrol01","37.517882","1447379862143","20151113_105429","-0.284"
"2015/11/13 10:54:29","4","1.124","9.0","67637","139.933234","patrol01","37.517873","1447379862244","20151113_105429","-0.23"
"2015/11/13 10:54:29","3","1.128","9.142","67638","139.933234","patrol01","37.517864","1447379862345","20151113_105429","-0.278"
"2015/11/13 10:54:29","3","1.208","9.486","67639","139.933234","patrol01","37.517855","1447379862445","20151113_105429","-0.399"
"2015/11/13 10:54:29","3","1.366","9.568","67640","139.933234","patrol01","37.517845","1447379862546","20151113_105429","-0.255"
"2015/11/13 10:54:29","3","1.435","9.73","67641","139.933234","patrol01","37.517836","1447379862647","20151113_105429","-0.375"
"2015/11/13 10:54:29","3","1.49","9.88","67642","139.933234","patrol01","37.517826","1447379862747","20151113_105429","-0.431"
"2015/11/13 10:54:29","3","1.053","9.497","67643","139.933235","patrol01","37.517818","1447379862843","20151113_105429","-0.516"
"2015/11/13 10:54:29","3","1.208","9.617","67644","139.933235","patrol01","37.517808","1447379862944","20151113_105429","-0.502"
"2015/11/13 10:54:29","3","1.205","9.458","67645","139.933235","patrol01","37.517799","1447379863044","20151113_105429","-0.4"
"2015/11/13 10:54:29","3","1.237","9.518","67646","139.933235","patrol01","37.517789","1447379863145","20151113_105429","-0.413"
"2015/11/13 10:54:29","3","1.326","9.495","67647","139.933235","patrol01","37.51778","1447379863246","20151113_105429","-0.274"
"2015/11/13 10:54:29","3","1.3","9.637","67648","139.933235","patrol01","37.517771","1447379863347","20151113_105429","-0.225"
"2015/11/13 10:54:29","3","1.254","9.476","67649","139.933235","patrol01","37.517762","1447379863447","20151113_105429","-0.099"
"2015/11/13 10:54:29","3","1.301","9.712","67650","139.933235","patrol01","37.517754","1447379863543","20151113_105429","-0.215"
"2015/11/13 10:54:29","3","1.401","9.768","67651","139.933236","patrol01","37.517745","1447379863644","20151113_105429","-0.346"
"2015/11/13 10:54:29","3","1.317","9.668","67652","139.933236","patrol01","37.517736","1447379863744","20151113_105429","-0.381"
"2015/11/13 10:54:29","3","1.284","9.643","67653","139.933236","patrol01","37.517728","1447379863845","20151113_105429","-0.363"
"2015/11/13 10:54:29","3","1.225","9.528","67654","139.933236","patrol01","37.517719","1447379863946","20151113_105429","-0.383"
"2015/11/13 10:54:29","3","1.362","9.719","67655","139.933237","patrol01","37.51771","1447379864046","20151113_105429","-0.39"
"2015/11/13 10:54:29","3","1.386","9.727","67656","139.933237","patrol01","37.517702","1447379864147","20151113_105429","-0.295"
"2015/11/13 10:54:29","3","1.2","9.307","67657","139.933237","patrol01","37.517693","1447379864243","20151113_105429","-0.316"
"2015/11/13 10:54:29","3","0.976","8.9","67658","139.933237","patrol01","37.517685","1447379864344","20151113_105429","-0.291"
"2015/11/13 10:54:29","3","1.199","9.134","67659","139.933237","patrol01","37.517676","1447379864444","20151113_105429","-0.283"
"2015/11/13 10:54:29","3","1.835","10.029","67660","139.933237","patrol01","37.517668","1447379864545","20151113_105429","-0.24"
"2015/11/13 10:54:29","3","1.832","10.343","67661","139.933237","patrol01","37.517659","1447379864646","20151113_105429","-0.189"
"2015/11/13 10:54:29","3","1.253","9.961","67662","139.933237","patrol01","37.517651","1447379864746","20151113_105429","-0.138"
"2015/11/13 10:54:29","3","1.066","9.542","67663","139.933238","patrol01","37.517642","1447379864847","20151113_105429","-0.204"
"2015/11/13 10:54:29","3","1.263","9.357","67664","139.933238","patrol01","37.517634","1447379864943","20151113_105429","-0.205"
"2015/11/13 10:54:29","3","1.435","9.238","67665","139.933238","patrol01","37.517625","1447379865043","20151113_105429","-0.285"
"2015/11/13 10:54:29","3","1.438","9.306","67666","139.933238","patrol01","37.517617","1447379865144","20151113_105429","-0.271"
"2015/11/13 10:54:29","3","1.503","9.511","67667","139.933238","patrol01","37.517608","1447379865245","20151113_105429","-0.27"
"2015/11/13 10:54:29","3","1.507","9.634","67668","139.933238","patrol01","37.5176","1447379865346","20151113_105429","-0.237"
"2015/11/13 10:54:29","3","1.594","9.745","67669","139.933239","patrol01","37.517591","1447379865446","20151113_105429","-0.22"
"2015/11/13 10:54:29","3","1.524","9.727","67670","139.93324","patrol01","37.517582","1447379865547","20151113_105429","-0.173"
"2015/11/13 10:54:29","3","1.426","9.613","67671","139.933241","patrol01","37.517574","1447379865643","20151113_105429","-0.191"
"2015/11/13 10:54:29","3","1.46","9.623","67672","139.933242","patrol01","37.517565","1447379865743","20151113_105429","-0.249"
"2015/11/13 10:54:29","3","1.487","9.617","67673","139.933243","patrol01","37.517556","1447379865844","20151113_105429","-0.19"
"2015/11/13 10:54:29","3","1.489","9.602","67674","139.933244","patrol01","37.517548","1447379865945","20151113_105429","-0.162"
"2015/11/13 10:54:29","3","1.409","9.546","67675","139.933245","patrol01","37.517539","1447379866045","20151113_105429","-0.179"
"2015/11/13 10:54:29","3","1.387","9.412","67676","139.933246","patrol01","37.51753","1447379866147","20151113_105429","-0.136"
"2015/11/13 10:54:29","3","1.328","9.579","67677","139.933247","patrol01","37.517521","1447379866247","20151113_105429","-0.195"
"2015/11/13 10:54:29","3","1.379","9.563","67678","139.933247","patrol01","37.517513","1447379866343","20151113_105429","-0.16"
"2015/11/13 10:54:29","3","1.268","9.562","67679","139.933247","patrol01","37.517503","1447379866443","20151113_105429","-0.204"
"2015/11/13 10:54:29","3","1.158","9.531","67680","139.933248","patrol01","37.517494","1447379866544","20151113_105429","-0.344"
"2015/11/13 10:54:29","3","1.117","9.601","67681","139.933248","patrol01","37.517485","1447379866645","20151113_105429","-0.321"
"2015/11/13 10:54:29","3","1.119","9.638","67682","139.933248","patrol01","37.517475","1447379866745","20151113_105429","-0.402"
"2015/11/13 10:54:29","3","1.114","9.624","67683","139.933249","patrol01","37.517466","1447379866846","20151113_105429","-0.273"
"2015/11/13 10:54:29","3","1.088","9.635","67684","139.933249","patrol01","37.517456","1447379866947","20151113_105429","-0.279"
"2015/11/13 10:54:29","3","1.068","9.69","67685","139.933249","patrol01","37.517447","1447379867043","20151113_105429","-0.232"
"2015/11/13 10:54:29","3","1.087","9.686","67686","139.93325","patrol01","37.517438","1447379867143","20151113_105429","-0.227"
"2015/11/13 10:54:29","3","1.059","9.544","67687","139.93325","patrol01","37.517429","1447379867244","20151113_105429","-0.253"
"2015/11/13 10:54:29","3","1.117","9.7","67688","139.93325","patrol01","37.51742","1447379867345","20151113_105429","-0.267"
"2015/11/13 10:54:29","3","0.986","9.692","67689","139.93325","patrol01","37.517411","1447379867445","20151113_105429","-0.294"
"2015/11/13 10:54:29","3","0.952","9.629","67690","139.93325","patrol01","37.517403","1447379867546","20151113_105429","-0.382"
"2015/11/13 10:54:29","3","0.907","9.576","67691","139.93325","patrol01","37.517395","1447379867647","20151113_105429","-0.43"
"2015/11/13 10:54:29","3","0.946","9.555","67692","139.93325","patrol01","37.517386","1447379867747","20151113_105429","-0.501"
"2015/11/13 10:54:29","3","1.052","9.626","67693","139.93325","patrol01","37.517379","1447379867843","20151113_105429","-0.551"
"2015/11/13 10:54:29","3","1.077","9.63","67694","139.93325","patrol01","37.51737","1447379867949","20151113_105429","-0.508"
"2015/11/13 10:54:29","3","1.037","9.616","67695","139.93325","patrol01","37.517362","1447379868045","20151113_105429","-0.469"
"2015/11/13 10:54:29","3","1.057","9.568","67696","139.93325","patrol01","37.517354","1447379868144","20151113_105429","-0.423"
"2015/11/13 10:54:29","3","1.099","9.653","67697","139.93325","patrol01","37.517345","1447379868246","20151113_105429","-0.459"
"2015/11/13 10:54:29","4","1.106","9.638","67698","139.93325","patrol01","37.517337","1447379868345","20151113_105429","-0.515"
"2015/11/13 10:54:29","4","1.046","9.686","67699","139.93325","patrol01","37.517327","1447379868447","20151113_105429","-0.526"
"2015/11/13 10:54:29","4","0.986","9.601","67700","139.933249","patrol01","37.517318","1447379868543","20151113_105429","-0.488"
"2015/11/13 10:54:29","4","1.009","9.688","67701","139.933249","patrol01","37.517309","1447379868644","20151113_105429","-0.378"
"2015/11/13 10:54:29","4","1.057","9.62","67702","139.933249","patrol01","37.5173","1447379868744","20151113_105429","-0.339"
"2015/11/13 10:54:29","4","1.064","9.618","67703","139.933248","patrol01","37.517291","1447379868845","20151113_105429","-0.356"
"2015/11/13 10:54:29","4","1.108","9.613","67704","139.933248","patrol01","37.517282","1447379868946","20151113_105429","-0.371"
"2015/11/13 10:54:29","4","1.065","9.569","67705","139.933248","patrol01","37.517273","1447379869047","20151113_105429","-0.316"
"2015/11/13 10:54:29","4","1.141","9.605","67706","139.933247","patrol01","37.517263","1447379869148","20151113_105429","-0.304"
"2015/11/13 10:54:29","4","1.246","9.692","67707","139.933247","patrol01","37.517255","1447379869243","20151113_105429","-0.28"
"2015/11/13 10:54:29","3","1.219","9.691","67708","139.933247","patrol01","37.517245","1447379869344","20151113_105429","-0.287"
"2015/11/13 10:54:29","3","1.165","9.639","67709","139.933247","patrol01","37.517236","1447379869444","20151113_105429","-0.351"
"2015/11/13 10:54:29","3","1.137","9.627","67710","139.933247","patrol01","37.517227","1447379869545","20151113_105429","-0.463"
"2015/11/13 10:54:29","3","1.225","9.714","67711","139.933247","patrol01","37.517218","1447379869646","20151113_105429","-0.637"
"2015/11/13 10:54:29","3","1.307","9.695","67712","139.933247","patrol01","37.517209","1447379869747","20151113_105429","-0.743"
"2015/11/13 10:54:29","3","1.191","9.64","67713","139.933248","patrol01","37.5172","1447379869847","20151113_105429","-0.838"
"2015/11/13 10:54:29","3","1.197","9.612","67714","139.933248","patrol01","37.517191","1447379869943","20151113_105429","-0.959"
"2015/11/13 10:54:29","3","1.188","9.556","67715","139.933248","patrol01","37.517182","1447379870044","20151113_105429","-0.874"
"2015/11/13 10:54:29","3","1.25","9.534","67716","139.933248","patrol01","37.517173","1447379870144","20151113_105429","-0.789"
"2015/11/13 10:54:29","3","1.187","9.474","67717","139.933248","patrol01","37.517164","1447379870245","20151113_105429","-0.806"
"2015/11/13 10:54:29","4","1.19","9.403","67718","139.933248","patrol01","37.517154","1447379870346","20151113_105429","-0.787"
"2015/11/13 10:54:29","4","1.296","9.56","67719","139.933247","patrol01","37.517145","1447379870446","20151113_105429","-0.809"
"2015/11/13 10:54:29","4","1.322","9.614","67720","139.933247","patrol01","37.517135","1447379870547","20151113_105429","-0.819"
"2015/11/13 10:54:29","4","1.268","9.571","67721","139.933246","patrol01","37.517126","1447379870643","20151113_105429","-0.778"
"2015/11/13 10:54:29","4","1.359","9.732","67722","139.933246","patrol01","37.517117","1447379870744","20151113_105429","-0.779"
"2015/11/13 10:54:29","4","1.327","9.702","67723","139.933245","patrol01","37.517108","1447379870844","20151113_105429","-0.654"
"2015/11/13 10:54:29","4","1.285","9.716","67724","139.933245","patrol01","37.517098","1447379870945","20151113_105429","-0.74"
"2015/11/13 10:54:29","4","1.302","9.615","67725","139.933244","patrol01","37.517089","1447379871046","20151113_105429","-0.688"
"2015/11/13 10:54:29","4","1.232","9.579","67726","139.933244","patrol01","37.517079","1447379871146","20151113_105429","-0.72"
"2015/11/13 10:54:29","4","1.224","9.608","67727","139.933243","patrol01","37.51707","1447379871247","20151113_105429","-0.776"
"2015/11/13 10:54:29","3","1.273","9.643","67728","139.933242","patrol01","37.517061","1447379871343","20151113_105429","-0.884"
"2015/11/13 10:54:29","3","1.196","9.656","67729","139.93324","patrol01","37.517051","1447379871443","20151113_105429","-0.927"
"2015/11/13 10:54:29","3","1.203","9.63","67730","139.933238","patrol01","37.517041","1447379871544","20151113_105429","-0.931"
"2015/11/13 10:54:29","3","1.215","9.702","67731","139.933236","patrol01","37.517031","1447379871645","20151113_105429","-0.972"
"2015/11/13 10:54:29","3","1.198","9.754","67732","139.933234","patrol01","37.517021","1447379871746","20151113_105429","-0.935"
"2015/11/13 10:54:29","3","1.149","9.743","67733","139.933232","patrol01","37.517011","1447379871846","20151113_105429","-1.003"
"2015/11/13 10:54:29","3","1.141","9.697","67734","139.93323","patrol01","37.517001","1447379871947","20151113_105429","-0.986"
"2015/11/13 10:54:29","3","1.131","9.759","67735","139.933228","patrol01","37.516992","1447379872043","20151113_105429","-1.077"
"2015/11/13 10:54:29","3","1.039","9.636","67736","139.933226","patrol01","37.516982","1447379872143","20151113_105429","-1.012"
"2015/11/13 10:54:29","3","1.099","9.615","67737","139.933224","patrol01","37.516972","1447379872244","20151113_105429","-1.03"
"2015/11/13 10:54:29","4","1.148","9.692","67738","139.933222","patrol01","37.516962","1447379872345","20151113_105429","-0.924"
"2015/11/13 10:54:29","4","1.187","9.714","67739","139.933219","patrol01","37.516953","1447379872445","20151113_105429","-0.887"
"2015/11/13 10:54:29","4","1.109","9.677","67740","139.933216","patrol01","37.516944","1447379872546","20151113_105429","-0.866"
"2015/11/13 10:54:29","4","1.08","9.72","67741","139.933214","patrol01","37.516935","1447379872647","20151113_105429","-0.817"
"2015/11/13 10:54:29","4","1.122","9.855","67742","139.933211","patrol01","37.516926","1447379872743","20151113_105429","-0.781"
"2015/11/13 10:54:29","4","1.111","9.838","67743","139.933209","patrol01","37.516917","1447379872843","20151113_105429","-0.776"
"2015/11/13 10:54:29","4","1.093","9.908","67744","139.933206","patrol01","37.516908","1447379872944","20151113_105429","-0.78"
"2015/11/13 10:54:29","4","1.066","9.867","67745","139.933204","patrol01","37.516899","1447379873045","20151113_105429","-0.713"
"2015/11/13 10:54:29","4","0.938","9.658","67746","139.933201","patrol01","37.51689","1447379873145","20151113_105429","-0.814"
"2015/11/13 10:54:29","4","1.027","9.591","67747","139.933198","patrol01","37.516881","1447379873246","20151113_105429","-0.715"
"2015/11/13 10:54:29","4","1.149","9.66","67748","139.933195","patrol01","37.516871","1447379873347","20151113_105429","-0.652"
"2015/11/13 10:54:29","4","1.227","9.877","67749","139.933191","patrol01","37.51686","1447379873448","20151113_105429","-0.658"
"2015/11/13 10:54:29","4","1.1","9.696","67750","139.933187","patrol01","37.51685","1447379873543","20151113_105429","-0.644"
"2015/11/13 10:54:29","4","1.1","9.759","67751","139.933182","patrol01","37.51684","1447379873644","20151113_105429","-0.676"
"2015/11/13 10:54:29","4","1.208","9.827","67752","139.933178","patrol01","37.516829","1447379873745","20151113_105429","-0.798"
"2015/11/13 10:54:29","4","1.111","9.793","67753","139.933174","patrol01","37.516819","1447379873845","20151113_105429","-0.764"
"2015/11/13 10:54:29","4","1.129","9.693","67754","139.93317","patrol01","37.516808","1447379873946","20151113_105429","-0.693"
"2015/11/13 10:54:29","4","1.004","9.556","67755","139.933165","patrol01","37.516798","1447379874047","20151113_105429","-0.751"
"2015/11/13 10:54:29","4","1.083","9.664","67756","139.933161","patrol01","37.516787","1447379874147","20151113_105429","-0.78"
"2015/11/13 10:54:29","4","1.053","9.592","67757","139.933157","patrol01","37.516777","1447379874243","20151113_105429","-0.861"
"2015/11/13 10:54:29","4","0.994","9.609","67758","139.933153","patrol01","37.516767","1447379874344","20151113_105429","-0.869"
"2015/11/13 10:54:29","4","1.43","10.197","67759","139.93315","patrol01","37.516757","1447379874444","20151113_105429","-0.949"
"2015/11/13 10:54:29","4","1.398","10.398","67760","139.933146","patrol01","37.516747","1447379874545","20151113_105429","-1.102"
"2015/11/13 10:54:29","4","0.85","9.607","67761","139.933143","patrol01","37.516738","1447379874646","20151113_105429","-1.063"
"2015/11/13 10:54:29","4","0.703","9.281","67762","139.93314","patrol01","37.516728","1447379874747","20151113_105429","-0.932"
"2015/11/13 10:54:29","4","1.027","9.284","67763","139.933136","patrol01","37.516718","1447379874847","20151113_105429","-0.962"
"2015/11/13 10:54:29","4","1.153","9.329","67764","139.933133","patrol01","37.516708","1447379874943","20151113_105429","-1.007"
"2015/11/13 10:54:29","4","1.043","9.468","67765","139.93313","patrol01","37.516699","1447379875044","20151113_105429","-1.017"
"2015/11/13 10:54:29","4","1.005","9.78","67766","139.933126","patrol01","37.516689","1447379875144","20151113_105429","-1.036"
"2015/11/13 10:54:29","4","0.988","9.716","67767","139.933123","patrol01","37.516679","1447379875245","20151113_105429","-1.055"
"2015/11/13 10:54:29","3","0.915","9.514","67768","139.933119","patrol01","37.516669","1447379875346","20151113_105429","-0.979"
"2015/11/13 10:54:29","3","0.965","9.432","67769","139.933114","patrol01","37.516659","1447379875447","20151113_105429","-0.927"
"2015/11/13 10:54:29","3","1.001","9.493","67770","139.933109","patrol01","37.51665","1447379875547","20151113_105429","-0.877"
"2015/11/13 10:54:29","3","0.979","9.489","67771","139.933105","patrol01","37.516641","1447379875643","20151113_105429","-0.789"
"2015/11/13 10:54:29","3","0.982","9.593","67772","139.9331","patrol01","37.516631","1447379875744","20151113_105429","-0.714"
"2015/11/13 10:54:29","3","0.995","9.696","67773","139.933095","patrol01","37.516621","1447379875844","20151113_105429","-0.704"
"2015/11/13 10:54:29","3","1.017","9.722","67774","139.93309","patrol01","37.516611","1447379875945","20151113_105429","-0.681"
"2015/11/13 10:54:29","3","0.979","9.641","67775","139.933086","patrol01","37.516602","1447379876046","20151113_105429","-0.679"
"2015/11/13 10:54:29","3","0.989","9.695","67776","139.933081","patrol01","37.516592","1447379876147","20151113_105429","-0.573"
"2015/11/13 10:54:29","3","0.984","9.674","67777","139.933076","patrol01","37.516582","1447379876247","20151113_105429","-0.526"
"2015/11/13 10:54:29","4","0.959","9.665","67778","139.933071","patrol01","37.516573","1447379876343","20151113_105429","-0.557"
"2015/11/13 10:54:29","4","1.053","9.904","67779","139.933065","patrol01","37.516564","1447379876444","20151113_105429","-0.521"
"2015/11/13 10:54:29","4","1.035","9.858","67780","139.933059","patrol01","37.516554","1447379876544","20151113_105429","-0.505"
"2015/11/13 10:54:29","4","0.91","9.691","67781","139.933054","patrol01","37.516545","1447379876645","20151113_105429","-0.503"
"2015/11/13 10:54:29","4","0.931","9.673","67782","139.933048","patrol01","37.516535","1447379876746","20151113_105429","-0.424"
"2015/11/13 10:54:29","4","1.008","9.61","67783","139.933042","patrol01","37.516525","1447379876846","20151113_105429","-0.338"
"2015/11/13 10:54:29","4","0.983","9.553","67784","139.933036","patrol01","37.516516","1447379876947","20151113_105429","-0.271"
"2015/11/13 10:54:29","4","0.97","9.61","67785","139.933031","patrol01","37.516507","1447379877043","20151113_105429","-0.269"
"2015/11/13 10:54:29","4","0.966","9.641","67786","139.933025","patrol01","37.516497","1447379877143","20151113_105429","-0.259"
"2015/11/13 10:54:29","4","1.017","9.72","67787","139.933019","patrol01","37.516488","1447379877244","20151113_105429","-0.295"
"2015/11/13 10:54:29","4","1.025","9.741","67788","139.933013","patrol01","37.516478","1447379877345","20151113_105429","-0.351"
"2015/11/13 10:54:29","4","0.997","9.697","67789","139.933008","patrol01","37.516469","1447379877446","20151113_105429","-0.354"
"2015/11/13 10:54:29","4","1.013","9.736","67790","139.933003","patrol01","37.516459","1447379877546","20151113_105429","-0.355"
"2015/11/13 10:54:29","4","0.967","9.615","67791","139.932998","patrol01","37.51645","1447379877647","20151113_105429","-0.374"
"2015/11/13 10:54:29","4","0.963","9.578","67792","139.932993","patrol01","37.516441","1447379877743","20151113_105429","-0.387"
"2015/11/13 10:54:29","4","0.975","9.562","67793","139.932988","patrol01","37.516431","1447379877843","20151113_105429","-0.412"
"2015/11/13 10:54:29","4","0.99","9.569","67794","139.932982","patrol01","37.516421","1447379877944","20151113_105429","-0.366"
"2015/11/13 10:54:29","4","1.011","9.587","67795","139.932977","patrol01","37.516412","1447379878045","20151113_105429","-0.258"
"2015/11/13 10:54:29","4","1.01","9.608","67796","139.932972","patrol01","37.516402","1447379878146","20151113_105429","-0.212"
"2015/11/13 10:54:29","4","1.03","9.636","67797","139.932967","patrol01","37.516393","1447379878246","20151113_105429","-0.174"
"2015/11/13 10:54:29","4","1.118","9.732","67798","139.932962","patrol01","37.516383","1447379878347","20151113_105429","-0.134"
"2015/11/13 10:54:29","4","1.149","9.685","67799","139.932957","patrol01","37.516373","1447379878443","20151113_105429","-0.164"
"2015/11/13 10:54:29","4","1.139","9.645","67800","139.932952","patrol01","37.516363","1447379878543","20151113_105429","-0.189"
"2015/11/13 10:54:29","4","1.217","9.714","67801","139.932948","patrol01","37.516353","1447379878644","20151113_105429","-0.227"
"2015/11/13 10:54:29","4","1.238","9.674","67802","139.932943","patrol01","37.516343","1447379878745","20151113_105429","-0.293"
"2015/11/13 10:54:29","4","1.223","9.591","67803","139.932938","patrol01","37.516333","1447379878845","20151113_105429","-0.236"
"2015/11/13 10:54:29","4","1.26","9.542","67804","139.932933","patrol01","37.516324","1447379878946","20151113_105429","-0.182"
"2015/11/13 10:54:29","4","1.307","9.579","67805","139.932929","patrol01","37.516314","1447379879047","20151113_105429","-0.187"
"2015/11/13 10:54:29","4","1.342","9.555","67806","139.932924","patrol01","37.516304","1447379879143","20151113_105429","-0.162"
"2015/11/13 10:54:29","4","1.396","9.55","67807","139.932919","patrol01","37.516294","1447379879243","20151113_105429","-0.143"
"2015/11/13 10:54:29","4","1.447","9.604","67808","139.932914","patrol01","37.516284","1447379879344","20151113_105429","-0.138"
"2015/11/13 10:54:29","4","1.461","9.66","67809","139.932909","patrol01","37.516274","1447379879445","20151113_105429","-0.169"
"2015/11/13 10:54:29","4","1.469","9.67","67810","139.932904","patrol01","37.516264","1447379879545","20151113_105429","-0.145"
"2015/11/13 10:54:29","4","1.472","9.646","67811","139.932899","patrol01","37.516254","1447379879646","20151113_105429","-0.168"
"2015/11/13 10:54:29","4","1.446","9.625","67812","139.932893","patrol01","37.516244","1447379879747","20151113_105429","-0.197"
"2015/11/13 10:54:29","4","1.481","9.655","67813","139.932888","patrol01","37.516234","1447379879848","20151113_105429","-0.2"
"2015/11/13 10:54:29","4","1.478","9.63","67814","139.932883","patrol01","37.516225","1447379879943","20151113_105429","-0.243"
"2015/11/13 10:54:29","4","1.483","9.609","67815","139.932878","patrol01","37.516214","1447379880044","20151113_105429","-0.198"
"2015/11/13 10:54:29","4","1.527","9.707","67816","139.932873","patrol01","37.516204","1447379880145","20151113_105429","-0.209"
"2015/11/13 10:54:29","4","1.481","9.582","67817","139.932867","patrol01","37.516194","1447379880245","20151113_105429","-0.209"
"2015/11/13 10:54:29","4","1.417","9.534","67818","139.932861","patrol01","37.516185","1447379880346","20151113_105429","-0.202"
"2015/11/13 10:54:29","4","1.439","9.486","67819","139.932855","patrol01","37.516175","1447379880447","20151113_105429","-0.162"
"2015/11/13 10:54:29","4","1.468","9.435","67820","139.932848","patrol01","37.516166","1447379880547","20151113_105429","-0.175"
"2015/11/13 10:54:29","4","1.483","9.466","67821","139.932842","patrol01","37.516157","1447379880643","20151113_105429","-0.145"
"2015/11/13 10:54:29","4","1.509","9.571","67822","139.932835","patrol01","37.516147","1447379880744","20151113_105429","-0.173"
"2015/11/13 10:54:29","4","1.49","9.579","67823","139.932829","patrol01","37.516138","1447379880844","20151113_105429","-0.21"
"2015/11/13 10:54:29","4","1.494","9.588","67824","139.932822","patrol01","37.516129","1447379880945","20151113_105429","-0.246"
"2015/11/13 10:54:29","4","1.511","9.645","67825","139.932815","patrol01","37.516119","1447379881046","20151113_105429","-0.305"
"2015/11/13 10:54:29","4","1.546","9.725","67826","139.932809","patrol01","37.51611","1447379881147","20151113_105429","-0.291"
"2015/11/13 10:54:29","4","1.527","9.618","67827","139.932802","patrol01","37.5161","1447379881247","20151113_105429","-0.235"
"2015/11/13 10:54:29","5","1.484","9.584","67828","139.932797","patrol01","37.516092","1447379881343","20151113_105429","-0.234"
"2015/11/13 10:54:29","5","1.509","9.582","67829","139.932793","patrol01","37.516083","1447379881444","20151113_105429","-0.229"
"2015/11/13 10:54:29","5","1.429","9.582","67830","139.932789","patrol01","37.516075","1447379881544","20151113_105429","-0.27"
"2015/11/13 10:54:29","5","1.359","9.561","67831","139.932785","patrol01","37.516067","1447379881645","20151113_105429","-0.297"
"2015/11/13 10:54:29","5","1.353","9.584","67832","139.93278","patrol01","37.516058","1447379881746","20151113_105429","-0.287"
"2015/11/13 10:54:29","5","1.288","9.573","67833","139.932776","patrol01","37.51605","1447379881847","20151113_105429","-0.275"
"2015/11/13 10:54:29","5","1.26","9.614","67834","139.932772","patrol01","37.516042","1447379881947","20151113_105429","-0.276"
"2015/11/13 10:54:29","5","1.196","9.649","67835","139.932768","patrol01","37.516033","1447379882048","20151113_105429","-0.247"
"2015/11/13 10:54:29","5","1.132","9.629","67836","139.932764","patrol01","37.516026","1447379882144","20151113_105429","-0.25"
"2015/11/13 10:54:29","5","1.092","9.608","67837","139.93276","patrol01","37.516017","1447379882243","20151113_105429","-0.228"
"2015/11/13 10:54:29","4","1.08","9.642","67838","139.932756","patrol01","37.516008","1447379882345","20151113_105429","-0.247"
"2015/11/13 10:54:29","4","1.056","9.635","67839","139.932754","patrol01","37.515999","1447379882444","20151113_105429","-0.241"
"2015/11/13 10:54:29","4","1.035","9.64","67840","139.93275","patrol01","37.51599","1447379882547","20151113_105429","-0.246"
"2015/11/13 10:54:29","4","1.018","9.613","67841","139.932747","patrol01","37.515981","1447379882646","20151113_105429","-0.312"
"2015/11/13 10:54:29","4","1.015","9.606","67842","139.932745","patrol01","37.515972","1447379882743","20151113_105429","-0.291"
"2015/11/13 10:54:29","4","1.06","9.744","67843","139.932741","patrol01","37.515962","1447379882844","20151113_105429","-0.345"
"2015/11/13 10:54:29","4","1.061","9.737","67844","139.932738","patrol01","37.515953","1447379882944","20151113_105429","-0.4"
"2015/11/13 10:54:29","4","1.045","9.774","67845","139.932735","patrol01","37.515944","1447379883045","20151113_105429","-0.445"
"2015/11/13 10:54:29","4","1.02","9.757","67846","139.932732","patrol01","37.515934","1447379883146","20151113_105429","-0.482"
"2015/11/13 10:54:29","4","0.832","9.334","67847","139.932729","patrol01","37.515925","1447379883246","20151113_105429","-0.496"
"2015/11/13 10:54:29","4","0.902","9.483","67848","139.932725","patrol01","37.515915","1447379883347","20151113_105429","-0.464"
"2015/11/13 10:54:29","4","1.128","9.625","67849","139.93272","patrol01","37.515905","1447379883443","20151113_105429","-0.432"
"2015/11/13 10:54:29","4","1.044","9.635","67850","139.932715","patrol01","37.515895","1447379883544","20151113_105429","-0.389"
"2015/11/13 10:54:29","4","0.981","9.684","67851","139.932709","patrol01","37.515885","1447379883644","20151113_105429","-0.407"
"2015/11/13 10:54:29","4","0.946","9.747","67852","139.932704","patrol01","37.515874","1447379883745","20151113_105429","-0.401"
"2015/11/13 10:54:29","4","0.928","9.717","67853","139.932699","patrol01","37.515864","1447379883846","20151113_105429","-0.466"
"2015/11/13 10:54:29","4","0.916","9.674","67854","139.932693","patrol01","37.515854","1447379883946","20151113_105429","-0.533"
"2015/11/13 10:54:29","4","0.94","9.701","67855","139.932688","patrol01","37.515843","1447379884047","20151113_105429","-0.55"
"2015/11/13 10:54:29","4","0.957","9.723","67856","139.932683","patrol01","37.515834","1447379884143","20151113_105429","-0.515"
"2015/11/13 10:54:29","4","0.933","9.682","67857","139.932678","patrol01","37.515823","1447379884243","20151113_105429","-0.447"
"2015/11/13 10:54:29","4","0.928","9.623","67858","139.932673","patrol01","37.515813","1447379884344","20151113_105429","-0.414"
"2015/11/13 10:54:29","4","0.974","9.718","67859","139.932668","patrol01","37.515804","1447379884445","20151113_105429","-0.37"
"2015/11/13 10:54:29","4","0.95","9.692","67860","139.932663","patrol01","37.515795","1447379884546","20151113_105429","-0.333"
"2015/11/13 10:54:29","4","0.885","9.654","67861","139.932659","patrol01","37.515785","1447379884646","20151113_105429","-0.354"
"2015/11/13 10:54:29","4","0.872","9.605","67862","139.932654","patrol01","37.515776","1447379884747","20151113_105429","-0.386"
"2015/11/13 10:54:29","4","0.862","9.514","67863","139.93265","patrol01","37.515767","1447379884843","20151113_105429","-0.363"
"2015/11/13 10:54:29","4","0.906","9.589","67864","139.932645","patrol01","37.515757","1447379884943","20151113_105429","-0.384"
"2015/11/13 10:54:29","4","0.895","9.596","67865","139.93264","patrol01","37.515748","1447379885044","20151113_105429","-0.32"
"2015/11/13 10:54:29","4","0.882","9.531","67866","139.932636","patrol01","37.515739","1447379885145","20151113_105429","-0.234"
"2015/11/13 10:54:29","4","0.838","9.468","67867","139.932631","patrol01","37.515729","1447379885245","20151113_105429","-0.209"
"2015/11/13 10:54:29","3","0.834","9.429","67868","139.932626","patrol01","37.51572","1447379885346","20151113_105429","-0.164"
"2015/11/13 10:54:29","3","0.849","9.444","67869","139.932622","patrol01","37.515711","1447379885447","20151113_105429","-0.167"
