"measurement_datetime","gps_error_meter","accel_y_longitudinal","accel_z_vertical","oid","longitude","car_name","latitude","measurement_ms","measurement_data_id","accel_x_transverse"
"2015/11/12 12:48:52","21","-0.454","9.611","108720","139.937403","patrol01","37.521424","1447300224890","20151112_124852","-2.897"
"2015/11/12 12:48:52","21","-0.419","9.602","108721","139.937398","patrol01","37.521424","1447300224991","20151112_124852","-2.887"
"2015/11/12 12:48:52","21","-0.432","9.728","108722","139.937394","patrol01","37.521424","1447300225092","20151112_124852","-2.787"
"2015/11/12 12:48:52","21","-0.474","9.745","108723","139.937389","patrol01","37.521424","1447300225192","20151112_124852","-2.771"
"2015/11/12 12:48:52","21","-0.503","9.61","108724","139.937384","patrol01","37.521424","1447300225293","20151112_124852","-2.779"
"2015/11/12 12:48:52","21","-0.538","9.592","108725","139.93738","patrol01","37.521425","1447300225389","20151112_124852","-2.72"
"2015/11/12 12:48:52","21","-0.581","9.652","108726","139.937375","patrol01","37.521425","1447300225489","20151112_124852","-2.598"
"2015/11/12 12:48:52","21","-0.588","9.654","108727","139.937371","patrol01","37.521425","1447300225590","20151112_124852","-2.541"
"2015/11/12 12:48:52","21","-0.683","9.704","108728","139.937366","patrol01","37.521425","1447300225691","20151112_124852","-2.307"
"2015/11/12 12:48:52","21","-0.762","9.696","108729","139.937361","patrol01","37.521425","1447300225791","20151112_124852","-2.023"
"2015/11/12 12:48:52","16","-0.84","9.757","108730","139.937357","patrol01","37.521425","1447300225892","20151112_124852","-1.775"
"2015/11/12 12:48:52","16","-0.854","9.778","108731","139.937351","patrol01","37.521426","1447300225993","20151112_124852","-1.539"
"2015/11/12 12:48:52","16","-0.925","9.809","108732","139.937345","patrol01","37.521426","1447300226089","20151112_124852","-1.329"
"2015/11/12 12:48:52","16","-0.974","9.695","108733","139.937339","patrol01","37.521427","1447300226189","20151112_124852","-1.018"
"2015/11/12 12:48:52","16","-1.028","9.758","108734","139.937333","patrol01","37.521427","1447300226290","20151112_124852","-0.72"
"2015/11/12 12:48:52","16","-1.097","9.747","108735","139.937327","patrol01","37.521428","1447300226391","20151112_124852","-0.491"
"2015/11/12 12:48:52","16","-1.165","9.727","108736","139.937321","patrol01","37.521428","1447300226491","20151112_124852","-0.309"
"2015/11/12 12:48:52","16","-1.191","9.534","108737","139.937315","patrol01","37.521429","1447300226592","20151112_124852","-0.215"
"2015/11/12 12:48:52","16","-1.286","9.429","108738","139.93731","patrol01","37.521429","1447300226693","20151112_124852","-0.22"
"2015/11/12 12:48:52","16","-1.291","9.571","108739","139.937304","patrol01","37.521429","1447300226789","20151112_124852","-0.34"
"2015/11/12 12:48:52","17","-1.22","9.794","108740","139.937298","patrol01","37.52143","1447300226889","20151112_124852","-0.475"
"2015/11/12 12:48:52","17","-1.185","9.827","108741","139.937292","patrol01","37.521433","1447300226990","20151112_124852","-0.547"
"2015/11/12 12:48:52","17","-1.215","9.685","108742","139.937286","patrol01","37.521436","1447300227091","20151112_124852","-0.601"
"2015/11/12 12:48:52","17","-1.203","9.731","108743","139.93728","patrol01","37.52144","1447300227191","20151112_124852","-0.571"
"2015/11/12 12:48:52","17","-1.183","9.8","108744","139.937275","patrol01","37.521443","1447300227292","20151112_124852","-0.588"
"2015/11/12 12:48:52","17","-1.19","9.722","108745","139.937269","patrol01","37.521446","1447300227393","20151112_124852","-0.575"
"2015/11/12 12:48:52","17","-1.169","9.827","108746","139.937263","patrol01","37.521449","1447300227493","20151112_124852","-0.58"
"2015/11/12 12:48:52","17","-1.15","9.711","108747","139.937257","patrol01","37.521452","1447300227589","20151112_124852","-0.535"
"2015/11/12 12:48:52","17","-1.127","9.711","108748","139.937251","patrol01","37.521456","1447300227690","20151112_124852","-0.538"
"2015/11/12 12:48:52","17","-1.134","9.679","108749","139.937246","patrol01","37.521459","1447300227791","20151112_124852","-0.527"
"2015/11/12 12:48:52","19","-1.105","9.709","108750","139.93724","patrol01","37.521462","1447300227891","20151112_124852","-0.463"
"2015/11/12 12:48:52","19","-1.109","9.729","108751","139.93723","patrol01","37.521463","1447300227992","20151112_124852","-0.452"
"2015/11/12 12:48:52","19","-1.096","9.603","108752","139.937221","patrol01","37.521464","1447300228093","20151112_124852","-0.421"
"2015/11/12 12:48:52","19","-1.06","9.731","108753","139.937212","patrol01","37.521466","1447300228193","20151112_124852","-0.431"
"2015/11/12 12:48:52","19","-1.051","9.765","108754","139.937203","patrol01","37.521467","1447300228289","20151112_124852","-0.396"
"2015/11/12 12:48:52","19","-1.037","9.66","108755","139.937194","patrol01","37.521468","1447300228390","20151112_124852","-0.445"
"2015/11/12 12:48:52","19","-1.024","9.614","108756","139.937185","patrol01","37.521469","1447300228490","20151112_124852","-0.444"
"2015/11/12 12:48:52","19","-1.015","9.786","108757","139.937175","patrol01","37.52147","1447300228591","20151112_124852","-0.498"
"2015/11/12 12:48:52","19","-1.017","9.704","108758","139.937166","patrol01","37.521472","1447300228692","20151112_124852","-0.529"
"2015/11/12 12:48:52","19","-1.003","9.658","108759","139.937157","patrol01","37.521473","1447300228793","20151112_124852","-0.499"
"2015/11/12 12:48:52","17","-1.014","9.735","108760","139.937147","patrol01","37.521474","1447300228893","20151112_124852","-0.461"
"2015/11/12 12:48:52","17","-0.994","9.74","108761","139.937135","patrol01","37.521474","1447300228989","20151112_124852","-0.479"
"2015/11/12 12:48:52","17","-1.008","9.665","108762","139.937122","patrol01","37.521474","1447300229090","20151112_124852","-0.507"
"2015/11/12 12:48:52","17","-0.962","9.705","108763","139.93711","patrol01","37.521474","1447300229190","20151112_124852","-0.492"
"2015/11/12 12:48:52","17","-0.978","9.674","108764","139.937097","patrol01","37.521474","1447300229291","20151112_124852","-0.503"
"2015/11/12 12:48:52","17","-0.949","9.691","108765","139.937084","patrol01","37.521474","1447300229392","20151112_124852","-0.441"
"2015/11/12 12:48:52","17","-0.962","9.709","108766","139.937071","patrol01","37.521474","1447300229493","20151112_124852","-0.436"
"2015/11/12 12:48:52","17","-0.956","9.669","108767","139.937059","patrol01","37.521474","1447300229593","20151112_124852","-0.415"
"2015/11/12 12:48:52","17","-0.928","9.601","108768","139.937047","patrol01","37.521474","1447300229689","20151112_124852","-0.332"
"2015/11/12 12:48:52","17","-0.922","9.728","108769","139.937034","patrol01","37.521474","1447300229790","20151112_124852","-0.434"
"2015/11/12 12:48:52","17","-0.901","9.539","108770","139.937021","patrol01","37.521474","1447300229890","20151112_124852","-0.589"
"2015/11/12 12:48:52","17","-0.886","9.739","108771","139.937004","patrol01","37.521474","1447300229991","20151112_124852","-0.257"
"2015/11/12 12:48:52","17","-0.825","9.863","108772","139.936988","patrol01","37.521474","1447300230092","20151112_124852","-0.298"
"2015/11/12 12:48:52","17","-0.881","9.643","108773","139.936971","patrol01","37.521475","1447300230192","20151112_124852","-0.339"
"2015/11/12 12:48:52","17","-0.902","9.709","108774","139.936955","patrol01","37.521475","1447300230293","20151112_124852","-0.454"
"2015/11/12 12:48:52","17","-0.934","9.713","108775","139.936939","patrol01","37.521475","1447300230389","20151112_124852","-0.455"
"2015/11/12 12:48:52","17","-0.819","9.792","108776","139.936922","patrol01","37.521475","1447300230490","20151112_124852","-0.483"
"2015/11/12 12:48:52","17","-0.818","9.689","108777","139.936906","patrol01","37.521475","1447300230590","20151112_124852","-0.593"
"2015/11/12 12:48:52","17","-0.718","9.665","108778","139.936889","patrol01","37.521476","1447300230691","20151112_124852","-0.588"
"2015/11/12 12:48:52","17","-0.752","9.572","108779","139.936873","patrol01","37.521476","1447300230792","20151112_124852","-0.442"
"2015/11/12 12:48:52","16","-0.652","9.776","108780","139.936856","patrol01","37.521476","1447300230892","20151112_124852","-0.528"
"2015/11/12 12:48:52","16","-0.714","9.882","108781","139.936846","patrol01","37.521478","1447300230993","20151112_124852","-0.599"
"2015/11/12 12:48:52","16","-0.705","9.79","108782","139.936836","patrol01","37.521481","1447300231089","20151112_124852","-0.523"
"2015/11/12 12:48:52","16","-0.719","9.711","108783","139.936825","patrol01","37.521483","1447300231190","20151112_124852","-0.495"
"2015/11/12 12:48:52","16","-0.722","9.73","108784","139.936814","patrol01","37.521485","1447300231291","20151112_124852","-0.496"
"2015/11/12 12:48:52","16","-0.694","9.732","108785","139.936803","patrol01","37.521487","1447300231391","20151112_124852","-0.468"
"2015/11/12 12:48:52","16","-0.668","9.678","108786","139.936793","patrol01","37.52149","1447300231492","20151112_124852","-0.397"
"2015/11/12 12:48:52","16","-0.631","9.724","108787","139.936782","patrol01","37.521492","1447300231592","20151112_124852","-0.365"
"2015/11/12 12:48:52","16","-0.629","9.697","108788","139.936771","patrol01","37.521494","1447300231693","20151112_124852","-0.333"
"2015/11/12 12:48:52","16","-0.629","9.703","108789","139.936761","patrol01","37.521496","1447300231789","20151112_124852","-0.326"
"2015/11/12 12:48:52","16","-0.622","9.574","108790","139.93675","patrol01","37.521499","1447300231889","20151112_124852","-0.268"
"2015/11/12 12:48:52","10","-0.613","9.619","108791","139.936739","patrol01","37.5215","1447300231990","20151112_124852","-0.198"
"2015/11/12 12:48:52","10","-0.613","9.648","108792","139.936728","patrol01","37.521502","1447300232091","20151112_124852","-0.177"
"2015/11/12 12:48:52","10","-0.635","9.639","108793","139.936717","patrol01","37.521504","1447300232192","20151112_124852","-0.101"
"2015/11/12 12:48:52","10","-0.629","9.718","108794","139.936706","patrol01","37.521506","1447300232292","20151112_124852","-0.065"
"2015/11/12 12:48:52","10","-0.621","9.827","108795","139.936695","patrol01","37.521508","1447300232393","20151112_124852","-0.107"
"2015/11/12 12:48:52","10","-0.628","9.74","108796","139.936685","patrol01","37.521509","1447300232489","20151112_124852","-0.087"
"2015/11/12 12:48:52","10","-0.626","9.708","108797","139.936674","patrol01","37.521511","1447300232589","20151112_124852","-0.063"
"2015/11/12 12:48:52","10","-0.633","9.715","108798","139.936663","patrol01","37.521513","1447300232690","20151112_124852","-0.033"
"2015/11/12 12:48:52","10","-0.604","9.751","108799","139.936652","patrol01","37.521515","1447300232791","20151112_124852","-0.058"
"2015/11/12 12:48:52","10","-0.619","9.728","108800","139.936641","patrol01","37.521517","1447300232891","20151112_124852","-0.039"
"2015/11/12 12:48:52","10","-0.64","9.704","108801","139.936631","patrol01","37.521519","1447300232992","20151112_124852","0.086"
"2015/11/12 12:48:52","10","-0.616","9.872","108802","139.936621","patrol01","37.521521","1447300233093","20151112_124852","-0.005"
"2015/11/12 12:48:52","10","-0.613","9.851","108803","139.936611","patrol01","37.521523","1447300233189","20151112_124852","0.013"
"2015/11/12 12:48:52","10","-0.641","9.835","108804","139.936601","patrol01","37.521525","1447300233289","20151112_124852","0.03"
"2015/11/12 12:48:52","10","-0.636","9.709","108805","139.936591","patrol01","37.521528","1447300233390","20151112_124852","0.089"
"2015/11/12 12:48:52","10","-0.605","9.734","108806","139.936581","patrol01","37.52153","1447300233491","20151112_124852","0.054"
"2015/11/12 12:48:52","10","-0.579","9.76","108807","139.936571","patrol01","37.521532","1447300233591","20151112_124852","0.024"
"2015/11/12 12:48:52","10","-0.574","9.698","108808","139.936561","patrol01","37.521534","1447300233692","20151112_124852","0.007"
"2015/11/12 12:48:52","10","-0.605","9.626","108809","139.936551","patrol01","37.521536","1447300233793","20151112_124852","0.03"
"2015/11/12 12:48:52","10","-0.605","9.735","108810","139.936541","patrol01","37.521539","1447300233894","20151112_124852","-0.134"
"2015/11/12 12:48:52","11","-0.558","9.782","108811","139.936529","patrol01","37.52154","1447300233989","20151112_124852","-0.114"
"2015/11/12 12:48:52","11","-0.59","9.702","108812","139.936516","patrol01","37.521541","1447300234090","20151112_124852","-0.154"
"2015/11/12 12:48:52","11","-0.627","9.697","108813","139.936503","patrol01","37.521542","1447300234191","20151112_124852","-0.225"
"2015/11/12 12:48:52","11","-0.609","9.742","108814","139.936491","patrol01","37.521544","1447300234292","20151112_124852","-0.293"
"2015/11/12 12:48:52","11","-0.599","9.641","108815","139.936478","patrol01","37.521545","1447300234393","20151112_124852","-0.299"
"2015/11/12 12:48:52","11","-0.561","9.696","108816","139.936466","patrol01","37.521546","1447300234493","20151112_124852","-0.285"
"2015/11/12 12:48:52","11","-0.549","9.842","108817","139.936453","patrol01","37.521547","1447300234593","20151112_124852","-0.297"
"2015/11/12 12:48:52","11","-0.578","9.765","108818","139.936441","patrol01","37.521548","1447300234689","20151112_124852","-0.327"
"2015/11/12 12:48:52","11","-0.566","9.665","108819","139.936428","patrol01","37.52155","1447300234790","20151112_124852","-0.375"
"2015/11/12 12:48:52","11","-0.601","9.606","108820","139.936416","patrol01","37.521551","1447300234890","20151112_124852","-0.359"
"2015/11/12 12:48:52","15","-0.544","9.737","108821","139.936401","patrol01","37.521552","1447300234991","20151112_124852","-0.397"
"2015/11/12 12:48:52","15","-0.585","9.683","108822","139.936387","patrol01","37.521553","1447300235092","20151112_124852","-0.408"
"2015/11/12 12:48:52","15","-0.594","9.698","108823","139.936373","patrol01","37.521554","1447300235193","20151112_124852","-0.371"
"2015/11/12 12:48:52","15","-0.537","9.9","108824","139.936358","patrol01","37.521555","1447300235293","20151112_124852","-0.321"
"2015/11/12 12:48:52","15","-0.498","9.846","108825","139.936345","patrol01","37.521556","1447300235389","20151112_124852","-0.222"
"2015/11/12 12:48:52","15","-0.523","9.758","108826","139.93633","patrol01","37.521557","1447300235490","20151112_124852","-0.186"
"2015/11/12 12:48:52","15","-0.535","9.65","108827","139.936316","patrol01","37.521558","1447300235590","20151112_124852","-0.276"
"2015/11/12 12:48:52","15","-0.434","9.681","108828","139.936302","patrol01","37.52156","1447300235691","20151112_124852","-0.294"
"2015/11/12 12:48:52","15","-0.345","9.901","108829","139.936287","patrol01","37.521561","1447300235792","20151112_124852","-0.258"
"2015/11/12 12:48:52","15","-0.262","10.075","108830","139.936273","patrol01","37.521562","1447300235892","20151112_124852","-0.228"
"2015/11/12 12:48:52","16","-0.319","9.868","108831","139.936264","patrol01","37.521563","1447300235993","20151112_124852","-0.195"
"2015/11/12 12:48:52","16","-0.392","9.645","108832","139.936256","patrol01","37.521564","1447300236089","20151112_124852","-0.118"
"2015/11/12 12:48:52","16","-0.42","9.542","108833","139.936248","patrol01","37.521565","1447300236195","20151112_124852","-0.149"
"2015/11/12 12:48:52","16","-0.327","9.541","108834","139.93624","patrol01","37.521567","1447300236290","20151112_124852","-0.141"
"2015/11/12 12:48:52","16","-0.203","9.654","108835","139.936233","patrol01","37.521568","1447300236389","20151112_124852","-0.197"
"2015/11/12 12:48:52","16","-0.374","9.708","108836","139.936225","patrol01","37.521569","1447300236492","20151112_124852","-0.206"
"2015/11/12 12:48:52","16","-0.41","9.6","108837","139.936217","patrol01","37.52157","1447300236591","20151112_124852","-0.206"
"2015/11/12 12:48:52","16","-0.354","9.592","108838","139.936209","patrol01","37.521571","1447300236693","20151112_124852","-0.23"
"2015/11/12 12:48:52","16","-0.322","9.709","108839","139.936201","patrol01","37.521573","1447300236789","20151112_124852","-0.236"
"2015/11/12 12:48:52","16","-0.349","9.604","108840","139.936194","patrol01","37.521574","1447300236890","20151112_124852","-0.21"
"2015/11/12 12:48:52","17","-0.358","9.696","108841","139.936177","patrol01","37.521572","1447300236990","20151112_124852","-0.221"
"2015/11/12 12:48:52","17","-0.308","9.892","108842","139.936158","patrol01","37.52157","1447300237091","20151112_124852","-0.225"
"2015/11/12 12:48:52","17","-0.335","9.822","108843","139.936139","patrol01","37.521568","1447300237192","20151112_124852","-0.3"
"2015/11/12 12:48:52","17","-0.425","9.614","108844","139.936121","patrol01","37.521566","1447300237292","20151112_124852","-0.284"
"2015/11/12 12:48:52","17","-0.36","9.712","108845","139.936102","patrol01","37.521564","1447300237393","20151112_124852","-0.284"
"2015/11/12 12:48:52","17","-0.278","9.828","108846","139.936084","patrol01","37.521562","1447300237489","20151112_124852","-0.248"
"2015/11/12 12:48:52","17","-0.383","9.667","108847","139.936065","patrol01","37.52156","1447300237589","20151112_124852","-0.521"
"2015/11/12 12:48:52","17","-0.537","9.423","108848","139.936046","patrol01","37.521558","1447300237690","20151112_124852","-0.418"
"2015/11/12 12:48:52","17","-0.482","9.623","108849","139.936028","patrol01","37.521556","1447300237791","20151112_124852","-0.346"
"2015/11/12 12:48:52","17","-0.382","9.794","108850","139.936009","patrol01","37.521553","1447300237892","20151112_124852","-0.455"
"2015/11/12 12:48:52","14","-0.321","9.765","108851","139.935991","patrol01","37.521552","1447300237992","20151112_124852","-0.422"
"2015/11/12 12:48:52","14","-0.321","9.817","108852","139.935974","patrol01","37.52155","1447300238093","20151112_124852","-0.424"
"2015/11/12 12:48:52","14","-0.398","9.665","108853","139.935957","patrol01","37.521549","1447300238189","20151112_124852","-0.381"
"2015/11/12 12:48:52","14","-0.397","9.662","108854","139.935939","patrol01","37.521547","1447300238289","20151112_124852","-0.345"
"2015/11/12 12:48:52","14","-0.34","9.834","108855","139.935922","patrol01","37.521546","1447300238390","20151112_124852","-0.288"
"2015/11/12 12:48:52","14","-0.267","9.802","108856","139.935905","patrol01","37.521544","1447300238491","20151112_124852","-0.298"
"2015/11/12 12:48:52","14","-0.294","9.821","108857","139.935887","patrol01","37.521543","1447300238591","20151112_124852","-0.355"
"2015/11/12 12:48:52","14","-0.381","9.66","108858","139.93587","patrol01","37.521541","1447300238692","20151112_124852","-0.344"
"2015/11/12 12:48:52","14","-0.377","9.598","108859","139.935852","patrol01","37.52154","1447300238793","20151112_124852","-0.35"
"2015/11/12 12:48:52","14","-0.328","9.683","108860","139.935835","patrol01","37.521538","1447300238889","20151112_124852","-0.386"
"2015/11/12 12:48:52","15","-0.325","9.841","108861","139.935821","patrol01","37.521538","1447300238989","20151112_124852","-0.405"
"2015/11/12 12:48:52","15","-0.339","9.738","108862","139.935806","patrol01","37.521538","1447300239090","20151112_124852","-0.361"
"2015/11/12 12:48:52","15","-0.359","9.563","108863","139.935792","patrol01","37.521538","1447300239191","20151112_124852","-0.355"
"2015/11/12 12:48:52","15","-0.361","9.533","108864","139.935778","patrol01","37.521538","1447300239291","20151112_124852","-0.342"
"2015/11/12 12:48:52","15","-0.315","9.653","108865","139.935763","patrol01","37.521538","1447300239392","20151112_124852","-0.344"
"2015/11/12 12:48:52","15","-0.287","9.666","108866","139.935749","patrol01","37.521538","1447300239493","20151112_124852","-0.317"
"2015/11/12 12:48:52","15","-0.298","9.649","108867","139.935735","patrol01","37.521538","1447300239594","20151112_124852","-0.24"
"2015/11/12 12:48:52","15","-0.317","9.806","108868","139.935721","patrol01","37.521538","1447300239689","20151112_124852","-0.31"
"2015/11/12 12:48:52","15","-0.343","9.893","108869","139.935707","patrol01","37.521538","1447300239790","20151112_124852","-0.333"
"2015/11/12 12:48:52","15","-0.375","9.797","108870","139.935693","patrol01","37.521538","1447300239891","20151112_124852","-0.29"
"2015/11/12 12:48:52","13","-0.379","9.701","108871","139.935678","patrol01","37.521538","1447300239991","20151112_124852","-0.287"
"2015/11/12 12:48:52","13","-0.372","9.671","108872","139.935662","patrol01","37.521538","1447300240092","20151112_124852","-0.295"
"2015/11/12 12:48:52","13","-0.333","9.707","108873","139.935647","patrol01","37.521538","1447300240193","20151112_124852","-0.285"
"2015/11/12 12:48:52","13","-0.306","9.791","108874","139.935631","patrol01","37.521538","1447300240293","20151112_124852","-0.311"
"2015/11/12 12:48:52","13","-0.311","9.667","108875","139.935616","patrol01","37.521538","1447300240389","20151112_124852","-0.294"
"2015/11/12 12:48:52","13","-0.353","9.631","108876","139.935601","patrol01","37.521537","1447300240490","20151112_124852","-0.295"
"2015/11/12 12:48:52","13","-0.336","9.67","108877","139.935586","patrol01","37.521537","1447300240591","20151112_124852","-0.347"
"2015/11/12 12:48:52","13","-0.356","9.645","108878","139.93557","patrol01","37.521537","1447300240691","20151112_124852","-0.264"
"2015/11/12 12:48:52","13","-0.315","9.631","108879","139.935555","patrol01","37.521537","1447300240792","20151112_124852","-0.306"
"2015/11/12 12:48:52","13","-0.344","9.724","108880","139.935539","patrol01","37.521537","1447300240893","20151112_124852","-0.353"
"2015/11/12 12:48:52","13","-0.356","9.649","108881","139.935525","patrol01","37.521537","1447300240993","20151112_124852","-0.45"
"2015/11/12 12:48:52","13","-0.363","9.674","108882","139.935512","patrol01","37.521536","1447300241089","20151112_124852","-0.491"
"2015/11/12 12:48:52","13","-0.298","9.696","108883","139.935498","patrol01","37.521536","1447300241190","20151112_124852","-0.39"
"2015/11/12 12:48:52","13","-0.304","9.649","108884","139.935484","patrol01","37.521536","1447300241290","20151112_124852","-0.278"
"2015/11/12 12:48:52","13","-0.328","9.686","108885","139.93547","patrol01","37.521536","1447300241391","20151112_124852","-0.348"
"2015/11/12 12:48:52","13","-0.288","9.719","108886","139.935456","patrol01","37.521535","1447300241492","20151112_124852","-0.331"
"2015/11/12 12:48:52","13","-0.287","9.78","108887","139.935442","patrol01","37.521535","1447300241593","20151112_124852","-0.195"
"2015/11/12 12:48:52","13","-0.321","9.772","108888","139.935428","patrol01","37.521535","1447300241693","20151112_124852","-0.166"
"2015/11/12 12:48:52","13","-0.342","9.757","108889","139.935415","patrol01","37.521534","1447300241789","20151112_124852","-0.165"
"2015/11/12 12:48:52","13","-0.365","9.83","108890","139.935401","patrol01","37.521534","1447300241890","20151112_124852","-0.192"
"2015/11/12 12:48:52","11","-0.369","9.762","108891","139.935391","patrol01","37.521537","1447300241990","20151112_124852","-0.114"
"2015/11/12 12:48:52","11","-0.332","9.826","108892","139.935382","patrol01","37.521541","1447300242091","20151112_124852","-0.138"
"2015/11/12 12:48:52","11","-0.356","9.758","108893","139.935374","patrol01","37.521545","1447300242192","20151112_124852","-0.163"
"2015/11/12 12:48:52","11","-0.324","9.726","108894","139.935365","patrol01","37.521549","1447300242293","20151112_124852","-0.186"
"2015/11/12 12:48:52","11","-0.302","9.83","108895","139.935357","patrol01","37.521553","1447300242393","20151112_124852","-0.138"
"2015/11/12 12:48:52","11","-0.34","9.662","108896","139.935348","patrol01","37.521557","1447300242489","20151112_124852","-0.137"
"2015/11/12 12:48:52","11","-0.365","9.681","108897","139.93534","patrol01","37.52156","1447300242590","20151112_124852","-0.15"
"2015/11/12 12:48:52","11","-0.326","9.722","108898","139.935331","patrol01","37.521564","1447300242690","20151112_124852","-0.135"
"2015/11/12 12:48:52","11","-0.335","9.73","108899","139.935322","patrol01","37.521568","1447300242791","20151112_124852","-0.237"
"2015/11/12 12:48:52","11","-0.315","9.793","108900","139.935314","patrol01","37.521572","1447300242892","20151112_124852","-0.168"
"2015/11/12 12:48:52","12","-0.322","9.659","108901","139.9353","patrol01","37.521573","1447300242992","20151112_124852","-0.146"
"2015/11/12 12:48:52","12","-0.363","9.81","108902","139.935284","patrol01","37.521574","1447300243093","20151112_124852","-0.142"
"2015/11/12 12:48:52","12","-0.347","9.855","108903","139.935269","patrol01","37.521574","1447300243189","20151112_124852","-0.155"
"2015/11/12 12:48:52","12","-0.346","9.824","108904","139.935254","patrol01","37.521575","1447300243290","20151112_124852","-0.118"
"2015/11/12 12:48:52","12","-0.345","9.745","108905","139.935239","patrol01","37.521575","1447300243390","20151112_124852","-0.069"
"2015/11/12 12:48:52","12","-0.35","9.71","108906","139.935223","patrol01","37.521575","1447300243491","20151112_124852","-0.172"
"2015/11/12 12:48:52","12","-0.29","9.786","108907","139.935208","patrol01","37.521576","1447300243592","20151112_124852","-0.056"
"2015/11/12 12:48:52","12","-0.3","9.819","108908","139.935192","patrol01","37.521576","1447300243692","20151112_124852","-0.039"
"2015/11/12 12:48:52","12","-0.359","9.68","108909","139.935177","patrol01","37.521577","1447300243793","20151112_124852","-0.068"
"2015/11/12 12:48:52","12","-0.32","9.709","108910","139.935162","patrol01","37.521577","1447300243889","20151112_124852","-0.105"
"2015/11/12 12:48:52","7","-0.279","9.826","108911","139.935146","patrol01","37.521576","1447300243989","20151112_124852","-0.087"
"2015/11/12 12:48:52","7","-0.275","9.836","108912","139.93513","patrol01","37.521575","1447300244090","20151112_124852","-0.147"
"2015/11/12 12:48:52","7","-0.324","9.862","108913","139.935114","patrol01","37.521574","1447300244191","20151112_124852","-0.205"
"2015/11/12 12:48:52","7","-0.343","9.861","108914","139.935098","patrol01","37.521572","1447300244292","20151112_124852","-0.24"
"2015/11/12 12:48:52","7","-0.324","9.855","108915","139.935082","patrol01","37.521571","1447300244392","20151112_124852","-0.286"
"2015/11/12 12:48:52","7","-0.301","9.788","108916","139.935066","patrol01","37.52157","1447300244493","20151112_124852","-0.243"
"2015/11/12 12:48:52","7","-0.237","9.662","108917","139.93505","patrol01","37.521569","1447300244589","20151112_124852","-0.24"
"2015/11/12 12:48:52","7","-0.139","9.765","108918","139.935034","patrol01","37.521568","1447300244689","20151112_124852","-0.324"
"2015/11/12 12:48:52","7","-0.143","9.5","108919","139.935018","patrol01","37.521566","1447300244790","20151112_124852","-0.198"
"2015/11/12 12:48:52","7","-0.087","9.387","108920","139.935002","patrol01","37.521565","1447300244891","20151112_124852","-0.071"
"2015/11/12 12:48:52","9","-0.019","9.481","108921","139.934989","patrol01","37.521566","1447300244992","20151112_124852","-0.306"
"2015/11/12 12:48:52","9","0.023","9.531","108922","139.934977","patrol01","37.521566","1447300245092","20151112_124852","-0.291"
"2015/11/12 12:48:52","9","0.102","9.903","108923","139.934964","patrol01","37.521567","1447300245193","20151112_124852","-0.343"
"2015/11/12 12:48:52","9","0.086","9.868","108924","139.934952","patrol01","37.521568","1447300245289","20151112_124852","-0.303"
"2015/11/12 12:48:52","9","-0.001","9.812","108925","139.93494","patrol01","37.521568","1447300245389","20151112_124852","-0.319"
"2015/11/12 12:48:52","9","-0.037","9.656","108926","139.934927","patrol01","37.521569","1447300245490","20151112_124852","-0.256"
"2015/11/12 12:48:52","9","0.012","9.675","108927","139.934915","patrol01","37.52157","1447300245591","20151112_124852","-0.195"
"2015/11/12 12:48:52","9","0.103","9.804","108928","139.934902","patrol01","37.52157","1447300245691","20151112_124852","-0.274"
"2015/11/12 12:48:52","9","0.093","9.792","108929","139.93489","patrol01","37.521571","1447300245792","20151112_124852","-0.442"
"2015/11/12 12:48:52","9","0.14","9.59","108930","139.934877","patrol01","37.521572","1447300245893","20151112_124852","-0.41"
"2015/11/12 12:48:52","9","0.17","9.85","108931","139.934865","patrol01","37.521574","1447300245994","20151112_124852","-0.544"
"2015/11/12 12:48:52","9","0.207","9.791","108932","139.934854","patrol01","37.521575","1447300246089","20151112_124852","-0.609"
"2015/11/12 12:48:52","9","0.222","9.717","108933","139.934842","patrol01","37.521577","1447300246190","20151112_124852","-0.696"
"2015/11/12 12:48:52","9","0.288","9.837","108934","139.93483","patrol01","37.521579","1447300246291","20151112_124852","-0.763"
"2015/11/12 12:48:52","9","0.338","9.707","108935","139.934818","patrol01","37.521581","1447300246391","20151112_124852","-0.774"
"2015/11/12 12:48:52","9","0.411","9.656","108936","139.934806","patrol01","37.521583","1447300246492","20151112_124852","-0.786"
"2015/11/12 12:48:52","9","0.491","9.62","108937","139.934793","patrol01","37.521585","1447300246594","20151112_124852","-0.752"
"2015/11/12 12:48:52","9","0.575","9.51","108938","139.934781","patrol01","37.521587","1447300246693","20151112_124852","-0.651"
"2015/11/12 12:48:52","9","0.636","9.516","108939","139.93477","patrol01","37.521589","1447300246789","20151112_124852","-0.632"
"2015/11/12 12:48:52","9","0.648","9.567","108940","139.934758","patrol01","37.521591","1447300246890","20151112_124852","-0.679"
"2015/11/12 12:48:52","9","0.718","9.658","108941","139.934746","patrol01","37.521592","1447300246991","20151112_124852","-0.702"
"2015/11/12 12:48:52","9","0.72","9.691","108942","139.934733","patrol01","37.521594","1447300247091","20151112_124852","-0.731"
"2015/11/12 12:48:52","9","0.732","9.594","108943","139.934721","patrol01","37.521596","1447300247192","20151112_124852","-0.656"
"2015/11/12 12:48:52","9","0.697","9.638","108944","139.934709","patrol01","37.521598","1447300247293","20151112_124852","-0.614"
"2015/11/12 12:48:52","9","0.689","9.645","108945","139.934697","patrol01","37.521599","1447300247393","20151112_124852","-0.643"
"2015/11/12 12:48:52","9","0.668","9.518","108946","139.934685","patrol01","37.521601","1447300247489","20151112_124852","-0.708"
"2015/11/12 12:48:52","9","0.659","9.562","108947","139.934673","patrol01","37.521603","1447300247590","20151112_124852","-0.701"
"2015/11/12 12:48:52","9","0.707","9.565","108948","139.93466","patrol01","37.521604","1447300247690","20151112_124852","-0.687"
"2015/11/12 12:48:52","9","0.68","9.578","108949","139.934648","patrol01","37.521606","1447300247791","20151112_124852","-0.584"
"2015/11/12 12:48:52","9","0.645","9.719","108950","139.934636","patrol01","37.521608","1447300247892","20151112_124852","-0.579"
"2015/11/12 12:48:52","7","0.658","9.79","108951","139.934621","patrol01","37.521608","1447300247993","20151112_124852","-0.529"
"2015/11/12 12:48:52","7","0.65","9.856","108952","139.934607","patrol01","37.521608","1447300248093","20151112_124852","-0.603"
"2015/11/12 12:48:52","7","0.667","9.806","108953","139.934593","patrol01","37.521608","1447300248189","20151112_124852","-0.584"
"2015/11/12 12:48:52","7","0.665","9.685","108954","139.934578","patrol01","37.521608","1447300248290","20151112_124852","-0.584"
"2015/11/12 12:48:52","7","0.673","9.844","108955","139.934563","patrol01","37.521608","1447300248390","20151112_124852","-0.547"
"2015/11/12 12:48:52","7","0.714","9.76","108956","139.934548","patrol01","37.521607","1447300248491","20151112_124852","-0.468"
"2015/11/12 12:48:52","7","0.729","9.589","108957","139.934534","patrol01","37.521607","1447300248592","20151112_124852","-0.384"
"2015/11/12 12:48:52","7","0.788","9.65","108958","139.934519","patrol01","37.521607","1447300248692","20151112_124852","-0.343"
"2015/11/12 12:48:52","7","0.8","9.636","108959","139.934504","patrol01","37.521607","1447300248793","20151112_124852","-0.27"
"2015/11/12 12:48:52","7","0.796","9.639","108960","139.93449","patrol01","37.521607","1447300248889","20151112_124852","-0.233"
"2015/11/12 12:48:52","8","0.787","9.674","108961","139.934479","patrol01","37.521608","1447300248990","20151112_124852","-0.207"
"2015/11/12 12:48:52","8","0.793","9.666","108962","139.934469","patrol01","37.52161","1447300249090","20151112_124852","-0.252"
"2015/11/12 12:48:52","8","0.825","9.667","108963","139.934459","patrol01","37.521611","1447300249191","20151112_124852","-0.332"
"2015/11/12 12:48:52","8","0.828","9.605","108964","139.934449","patrol01","37.521613","1447300249292","20151112_124852","-0.213"
"2015/11/12 12:48:52","8","0.802","9.721","108965","139.934439","patrol01","37.521614","1447300249392","20151112_124852","-0.314"
"2015/11/12 12:48:52","8","0.826","9.667","108966","139.934429","patrol01","37.521616","1447300249493","20151112_124852","-0.301"
"2015/11/12 12:48:52","8","0.877","9.65","108967","139.93442","patrol01","37.521617","1447300249589","20151112_124852","-0.173"
"2015/11/12 12:48:52","8","0.892","9.625","108968","139.93441","patrol01","37.521619","1447300249690","20151112_124852","-0.194"
"2015/11/12 12:48:52","8","0.929","9.617","108969","139.9344","patrol01","37.52162","1447300249790","20151112_124852","-0.306"
"2015/11/12 12:48:52","8","1.018","9.723","108970","139.93439","patrol01","37.521622","1447300249891","20151112_124852","-0.352"
"2015/11/12 12:48:52","8","1.09","9.7","108971","139.934379","patrol01","37.521623","1447300249992","20151112_124852","-0.309"
"2015/11/12 12:48:52","8","1.123","9.822","108972","139.934369","patrol01","37.521624","1447300250092","20151112_124852","-0.358"
"2015/11/12 12:48:52","8","1.139","9.812","108973","139.934358","patrol01","37.521625","1447300250193","20151112_124852","-0.338"
"2015/11/12 12:48:52","8","1.129","9.801","108974","139.934348","patrol01","37.521626","1447300250294","20151112_124852","-0.357"
"2015/11/12 12:48:52","8","1.164","9.691","108975","139.934338","patrol01","37.521627","1447300250389","20151112_124852","-0.367"
"2015/11/12 12:48:52","8","1.129","9.735","108976","139.934327","patrol01","37.521628","1447300250495","20151112_124852","-0.398"
"2015/11/12 12:48:52","8","1.151","9.685","108977","139.934317","patrol01","37.52163","1447300250591","20151112_124852","-0.372"
"2015/11/12 12:48:52","8","1.146","9.624","108978","139.934306","patrol01","37.521631","1447300250690","20151112_124852","-0.36"
"2015/11/12 12:48:52","8","1.194","9.68","108979","139.934296","patrol01","37.521632","1447300250792","20151112_124852","-0.297"
"2015/11/12 12:48:52","8","1.178","9.636","108980","139.934285","patrol01","37.521633","1447300250891","20151112_124852","-0.37"
"2015/11/12 12:48:52","7","1.163","9.609","108981","139.934277","patrol01","37.521634","1447300250989","20151112_124852","-0.319"
"2015/11/12 12:48:52","7","1.133","9.513","108982","139.934268","patrol01","37.521635","1447300251089","20151112_124852","-0.327"
"2015/11/12 12:48:52","7","1.229","9.437","108983","139.93426","patrol01","37.521636","1447300251190","20151112_124852","-0.222"
"2015/11/12 12:48:52","7","1.377","9.552","108984","139.934251","patrol01","37.521637","1447300251291","20151112_124852","-0.105"
"2015/11/12 12:48:52","7","1.52","9.497","108985","139.934243","patrol01","37.521638","1447300251391","20151112_124852","-0.119"
"2015/11/12 12:48:52","7","1.595","9.477","108986","139.934234","patrol01","37.521639","1447300251492","20151112_124852","-0.133"
"2015/11/12 12:48:52","7","1.566","9.371","108987","139.934225","patrol01","37.52164","1447300251593","20151112_124852","-0.078"
"2015/11/12 12:48:52","7","1.77","9.8","108988","139.934217","patrol01","37.521641","1447300251689","20151112_124852","0.007"
"2015/11/12 12:48:52","7","1.742","9.827","108989","139.934209","patrol01","37.521642","1447300251789","20151112_124852","0.182"
"2015/11/12 12:48:52","7","1.741","9.638","108990","139.9342","patrol01","37.521643","1447300251890","20151112_124852","0.353"
"2015/11/12 12:48:52","7","1.794","9.696","108991","139.934193","patrol01","37.521643","1447300251991","20151112_124852","0.41"
"2015/11/12 12:48:52","7","1.779","9.847","108992","139.934186","patrol01","37.521642","1447300252091","20151112_124852","0.74"
"2015/11/12 12:48:52","7","1.798","9.898","108993","139.934179","patrol01","37.521642","1447300252192","20151112_124852","1.029"
"2015/11/12 12:48:52","7","1.581","9.376","108994","139.934171","patrol01","37.521641","1447300252293","20151112_124852","1.3"
"2015/11/12 12:48:52","7","1.505","9.467","108995","139.934165","patrol01","37.521641","1447300252389","20151112_124852","1.415"
"2015/11/12 12:48:52","7","1.39","9.6","108996","139.934158","patrol01","37.52164","1447300252489","20151112_124852","1.536"
"2015/11/12 12:48:52","7","1.346","9.711","108997","139.93415","patrol01","37.52164","1447300252590","20151112_124852","1.484"
"2015/11/12 12:48:52","7","1.403","9.702","108998","139.934143","patrol01","37.521639","1447300252691","20151112_124852","1.4"
"2015/11/12 12:48:52","7","1.366","9.68","108999","139.934136","patrol01","37.521639","1447300252791","20151112_124852","1.317"
"2015/11/12 12:48:52","7","1.315","9.552","109000","139.934129","patrol01","37.521638","1447300252892","20151112_124852","1.419"
"2015/11/12 12:48:52","7","1.305","9.567","109001","139.934128","patrol01","37.521637","1447300252993","20151112_124852","1.535"
"2015/11/12 12:48:52","7","1.339","9.69","109002","139.934127","patrol01","37.521635","1447300253093","20151112_124852","1.543"
"2015/11/12 12:48:52","7","1.309","9.849","109003","139.934127","patrol01","37.521634","1447300253189","20151112_124852","1.43"
"2015/11/12 12:48:52","7","1.171","9.891","109004","139.934127","patrol01","37.521632","1447300253290","20151112_124852","1.358"
"2015/11/12 12:48:52","7","1.005","9.711","109005","139.934127","patrol01","37.521631","1447300253391","20151112_124852","1.489"
"2015/11/12 12:48:52","7","0.797","9.593","109006","139.934126","patrol01","37.521629","1447300253491","20151112_124852","1.537"
"2015/11/12 12:48:52","7","0.68","9.765","109007","139.934126","patrol01","37.521628","1447300253592","20151112_124852","1.473"
"2015/11/12 12:48:52","7","0.527","9.895","109008","139.934126","patrol01","37.521626","1447300253693","20151112_124852","1.396"
"2015/11/12 12:48:52","7","0.396","9.734","109009","139.934125","patrol01","37.521625","1447300253793","20151112_124852","1.467"
"2015/11/12 12:48:52","7","0.298","9.566","109010","139.934125","patrol01","37.521623","1447300253889","20151112_124852","1.516"
"2015/11/12 12:48:52","8","0.254","9.54","109011","139.934123","patrol01","37.521621","1447300253990","20151112_124852","1.545"
"2015/11/12 12:48:52","8","0.299","9.705","109012","139.93412","patrol01","37.521619","1447300254090","20151112_124852","1.649"
"2015/11/12 12:48:52","8","0.31","9.839","109013","139.934117","patrol01","37.521617","1447300254191","20151112_124852","1.643"
"2015/11/12 12:48:52","8","0.282","9.755","109014","139.934114","patrol01","37.521615","1447300254292","20151112_124852","1.533"
"2015/11/12 12:48:52","8","0.317","9.78","109015","139.934111","patrol01","37.521613","1447300254393","20151112_124852","1.395"
"2015/11/12 12:48:52","8","0.295","9.748","109016","139.934108","patrol01","37.521611","1447300254493","20151112_124852","1.301"
"2015/11/12 12:48:52","8","0.191","9.713","109017","139.934106","patrol01","37.521609","1447300254589","20151112_124852","1.322"
"2015/11/12 12:48:52","8","0.16","9.62","109018","139.934103","patrol01","37.521607","1447300254690","20151112_124852","1.427"
"2015/11/12 12:48:52","8","0.222","9.736","109019","139.9341","patrol01","37.521605","1447300254790","20151112_124852","1.517"
"2015/11/12 12:48:52","8","0.221","9.808","109020","139.934097","patrol01","37.521603","1447300254891","20151112_124852","1.567"
"2015/11/12 12:48:52","6","0.229","9.764","109021","139.934094","patrol01","37.5216","1447300254992","20151112_124852","1.445"
"2015/11/12 12:48:52","6","0.185","9.83","109022","139.93409","patrol01","37.521597","1447300255093","20151112_124852","1.257"
"2015/11/12 12:48:52","6","0.098","9.934","109023","139.934086","patrol01","37.521594","1447300255193","20151112_124852","1.135"
"2015/11/12 12:48:52","6","-0.111","9.797","109024","139.934083","patrol01","37.521591","1447300255289","20151112_124852","1.096"
"2015/11/12 12:48:52","6","-0.295","9.567","109025","139.934079","patrol01","37.521588","1447300255390","20151112_124852","1.208"
"2015/11/12 12:48:52","6","-0.347","9.624","109026","139.934076","patrol01","37.521585","1447300255490","20151112_124852","1.305"
"2015/11/12 12:48:52","6","-0.398","9.706","109027","139.934072","patrol01","37.521582","1447300255591","20151112_124852","1.389"
"2015/11/12 12:48:52","6","-0.535","9.743","109028","139.934068","patrol01","37.521578","1447300255692","20151112_124852","1.321"
"2015/11/12 12:48:52","6","-0.638","9.521","109029","139.934065","patrol01","37.521575","1447300255792","20151112_124852","1.334"
"2015/11/12 12:48:52","6","-0.64","9.492","109030","139.934061","patrol01","37.521572","1447300255893","20151112_124852","1.312"
"2015/11/12 12:48:52","5","-0.611","9.687","109031","139.934059","patrol01","37.521569","1447300255989","20151112_124852","1.289"
"2015/11/12 12:48:52","5","-0.702","9.68","109032","139.934057","patrol01","37.521566","1447300256090","20151112_124852","1.221"
"2015/11/12 12:48:52","5","-0.778","9.627","109033","139.934055","patrol01","37.521562","1447300256190","20151112_124852","1.189"
"2015/11/12 12:48:52","5","-0.769","9.626","109034","139.934053","patrol01","37.521559","1447300256291","20151112_124852","1.055"
"2015/11/12 12:48:52","5","-0.817","9.672","109035","139.934051","patrol01","37.521555","1447300256392","20151112_124852","0.984"
"2015/11/12 12:48:52","5","-0.821","9.695","109036","139.934049","patrol01","37.521552","1447300256492","20151112_124852","1.002"
"2015/11/12 12:48:52","5","-0.838","9.742","109037","139.934047","patrol01","37.521549","1447300256593","20151112_124852","0.994"
"2015/11/12 12:48:52","5","-0.903","9.617","109038","139.934045","patrol01","37.521545","1447300256689","20151112_124852","0.995"
"2015/11/12 12:48:52","5","-0.894","9.69","109039","139.934043","patrol01","37.521542","1447300256789","20151112_124852","0.931"
"2015/11/12 12:48:52","5","-0.908","9.696","109040","139.93404","patrol01","37.521539","1447300256890","20151112_124852","0.733"
"2015/11/12 12:48:52","5","-0.984","9.531","109041","139.934041","patrol01","37.521535","1447300256991","20151112_124852","0.679"
"2015/11/12 12:48:52","5","-0.968","9.532","109042","139.934041","patrol01","37.521532","1447300257092","20151112_124852","0.584"
"2015/11/12 12:48:52","5","-0.926","9.695","109043","139.934042","patrol01","37.521528","1447300257192","20151112_124852","0.486"
"2015/11/12 12:48:52","5","-0.816","9.912","109044","139.934043","patrol01","37.521525","1447300257293","20151112_124852","0.381"
"2015/11/12 12:48:52","5","-0.879","9.923","109045","139.934043","patrol01","37.521521","1447300257389","20151112_124852","0.32"
"2015/11/12 12:48:52","5","-0.948","9.773","109046","139.934044","patrol01","37.521518","1447300257489","20151112_124852","0.207"
"2015/11/12 12:48:52","5","-1.074","9.729","109047","139.934045","patrol01","37.521514","1447300257590","20151112_124852","-0.034"
"2015/11/12 12:48:52","5","-1.173","9.683","109048","139.934045","patrol01","37.521511","1447300257691","20151112_124852","-0.197"
"2015/11/12 12:48:52","5","-1.256","9.787","109049","139.934046","patrol01","37.521507","1447300257791","20151112_124852","-0.364"
"2015/11/12 12:48:52","5","-1.203","9.835","109050","139.934047","patrol01","37.521504","1447300257892","20151112_124852","-0.508"
"2015/11/12 12:48:52","6","-1.175","9.808","109051","139.934048","patrol01","37.521498","1447300257993","20151112_124852","-0.529"
"2015/11/12 12:48:52","6","-1.158","9.778","109052","139.934049","patrol01","37.521493","1447300258089","20151112_124852","-0.508"
"2015/11/12 12:48:52","6","-1.158","9.64","109053","139.93405","patrol01","37.521487","1447300258189","20151112_124852","-0.417"
"2015/11/12 12:48:52","6","-1.142","9.582","109054","139.93405","patrol01","37.521481","1447300258290","20151112_124852","-0.34"
"2015/11/12 12:48:52","6","-1.228","9.729","109055","139.934051","patrol01","37.521475","1447300258391","20151112_124852","-0.345"
"2015/11/12 12:48:52","6","-1.201","9.721","109056","139.934052","patrol01","37.521469","1447300258491","20151112_124852","-0.362"
"2015/11/12 12:48:52","6","-1.155","9.584","109057","139.934053","patrol01","37.521463","1447300258592","20151112_124852","-0.367"
"2015/11/12 12:48:52","6","-1.116","9.691","109058","139.934054","patrol01","37.521458","1447300258693","20151112_124852","-0.386"
"2015/11/12 12:48:52","6","-1.113","9.824","109059","139.934055","patrol01","37.521452","1447300258793","20151112_124852","-0.39"
"2015/11/12 12:48:52","6","-1.174","9.641","109060","139.934056","patrol01","37.521446","1447300258889","20151112_124852","-0.37"
"2015/11/12 12:48:52","4","-1.195","9.613","109061","139.934056","patrol01","37.52144","1447300258990","20151112_124852","-0.384"
"2015/11/12 12:48:52","4","-1.231","9.528","109062","139.934055","patrol01","37.521434","1447300259091","20151112_124852","-0.35"
"2015/11/12 12:48:52","4","-1.204","9.528","109063","139.934055","patrol01","37.521428","1447300259191","20151112_124852","-0.261"
"2015/11/12 12:48:52","4","-1.249","9.423","109064","139.934054","patrol01","37.521422","1447300259292","20151112_124852","-0.49"
"2015/11/12 12:48:52","4","-1.149","9.514","109065","139.934054","patrol01","37.521416","1447300259393","20151112_124852","-0.584"
"2015/11/12 12:48:52","4","-0.947","10.187","109066","139.934054","patrol01","37.521409","1447300259493","20151112_124852","-0.49"
"2015/11/12 12:48:52","4","-1.037","10.112","109067","139.934053","patrol01","37.521404","1447300259589","20151112_124852","-0.357"
"2015/11/12 12:48:52","4","-1.165","9.632","109068","139.934053","patrol01","37.521397","1447300259690","20151112_124852","-0.362"
"2015/11/12 12:48:52","4","-1.36","9.369","109069","139.934052","patrol01","37.521391","1447300259790","20151112_124852","-0.249"
"2015/11/12 12:48:52","4","-1.391","9.603","109070","139.934052","patrol01","37.521385","1447300259891","20151112_124852","-0.209"
"2015/11/12 12:48:52","5","-1.247","9.876","109071","139.93405","patrol01","37.521379","1447300259992","20151112_124852","-0.288"
"2015/11/12 12:48:52","5","-1.132","9.773","109072","139.934049","patrol01","37.521372","1447300260093","20151112_124852","-0.248"
"2015/11/12 12:48:52","5","-1.15","9.607","109073","139.934047","patrol01","37.521366","1447300260193","20151112_124852","-0.173"
"2015/11/12 12:48:52","5","-1.19","9.534","109074","139.934045","patrol01","37.52136","1447300260289","20151112_124852","-0.222"
"2015/11/12 12:48:52","5","-1.201","9.597","109075","139.934043","patrol01","37.521353","1447300260390","20151112_124852","-0.312"
"2015/11/12 12:48:52","5","-1.223","9.69","109076","139.934041","patrol01","37.521347","1447300260490","20151112_124852","-0.346"
"2015/11/12 12:48:52","5","-1.234","9.792","109077","139.934039","patrol01","37.521341","1447300260591","20151112_124852","-0.349"
"2015/11/12 12:48:52","5","-1.248","9.918","109078","139.934037","patrol01","37.521334","1447300260692","20151112_124852","-0.392"
"2015/11/12 12:48:52","5","-1.286","9.889","109079","139.934035","patrol01","37.521328","1447300260793","20151112_124852","-0.26"
"2015/11/12 12:48:52","5","-1.408","9.718","109080","139.934033","patrol01","37.521321","1447300260893","20151112_124852","-0.286"
"2015/11/12 12:48:52","5","-1.394","9.579","109081","139.934032","patrol01","37.521313","1447300260989","20151112_124852","-0.26"
"2015/11/12 12:48:52","5","-1.342","9.468","109082","139.934032","patrol01","37.521304","1447300261090","20151112_124852","-0.232"
"2015/11/12 12:48:52","5","-1.212","9.494","109083","139.934031","patrol01","37.521295","1447300261190","20151112_124852","-0.259"
"2015/11/12 12:48:52","5","-1.048","9.63","109084","139.93403","patrol01","37.521286","1447300261291","20151112_124852","-0.322"
"2015/11/12 12:48:52","5","-0.988","9.691","109085","139.934029","patrol01","37.521277","1447300261392","20151112_124852","-0.425"
"2015/11/12 12:48:52","5","-1.037","9.63","109086","139.934028","patrol01","37.521268","1447300261493","20151112_124852","-0.447"
"2015/11/12 12:48:52","5","-1.129","9.699","109087","139.934028","patrol01","37.521259","1447300261593","20151112_124852","-0.357"
"2015/11/12 12:48:52","5","-1.168","9.873","109088","139.934027","patrol01","37.521251","1447300261689","20151112_124852","-0.394"
"2015/11/12 12:48:52","5","-1.101","9.707","109089","139.934026","patrol01","37.521242","1447300261790","20151112_124852","-0.483"
"2015/11/12 12:48:52","5","-0.994","9.61","109090","139.934025","patrol01","37.521233","1447300261890","20151112_124852","-0.496"
"2015/11/12 12:48:52","6","-0.93","9.626","109091","139.934023","patrol01","37.521224","1447300261991","20151112_124852","-0.36"
"2015/11/12 12:48:52","6","-0.928","9.432","109092","139.93402","patrol01","37.521216","1447300262092","20151112_124852","-0.391"
"2015/11/12 12:48:52","6","-0.903","9.392","109093","139.934018","patrol01","37.521207","1447300262192","20151112_124852","-0.328"
"2015/11/12 12:48:52","6","-0.847","9.566","109094","139.934015","patrol01","37.521199","1447300262293","20151112_124852","-0.409"
"2015/11/12 12:48:52","6","-0.834","9.714","109095","139.934013","patrol01","37.52119","1447300262389","20151112_124852","-0.303"
"2015/11/12 12:48:52","6","-0.816","9.733","109096","139.934011","patrol01","37.521182","1447300262490","20151112_124852","-0.335"
"2015/11/12 12:48:52","6","-0.712","9.783","109097","139.934008","patrol01","37.521173","1447300262590","20151112_124852","-0.427"
"2015/11/12 12:48:52","6","-0.742","9.605","109098","139.934006","patrol01","37.521165","1447300262691","20151112_124852","-0.366"
"2015/11/12 12:48:52","6","-0.633","9.743","109099","139.934003","patrol01","37.521156","1447300262792","20151112_124852","-0.334"
"2015/11/12 12:48:52","6","-0.818","9.765","109100","139.934001","patrol01","37.521148","1447300262892","20151112_124852","-0.349"
"2015/11/12 12:48:52","5","-0.72","9.695","109101","139.934","patrol01","37.52114","1447300262993","20151112_124852","-0.295"
"2015/11/12 12:48:52","5","-0.706","9.677","109102","139.933999","patrol01","37.521132","1447300263089","20151112_124852","-0.349"
"2015/11/12 12:48:52","5","-0.694","9.856","109103","139.933999","patrol01","37.521124","1447300263189","20151112_124852","-0.353"
"2015/11/12 12:48:52","5","-0.631","9.851","109104","139.933999","patrol01","37.521116","1447300263290","20151112_124852","-0.325"
"2015/11/12 12:48:52","5","-0.465","9.725","109105","139.933999","patrol01","37.521108","1447300263391","20151112_124852","-0.35"
"2015/11/12 12:48:52","5","-0.379","9.708","109106","139.933998","patrol01","37.5211","1447300263492","20151112_124852","-0.279"
"2015/11/12 12:48:52","5","-0.275","9.782","109107","139.933998","patrol01","37.521092","1447300263592","20151112_124852","-0.315"
"2015/11/12 12:48:52","5","-0.231","9.737","109108","139.933998","patrol01","37.521084","1447300263693","20151112_124852","-0.351"
"2015/11/12 12:48:52","5","-0.153","9.87","109109","139.933997","patrol01","37.521077","1447300263789","20151112_124852","-0.46"
"2015/11/12 12:48:52","5","-0.1","9.82","109110","139.933997","patrol01","37.521069","1447300263889","20151112_124852","-0.457"
"2015/11/12 12:48:52","5","-0.051","9.933","109111","139.933997","patrol01","37.52106","1447300263990","20151112_124852","-0.425"
"2015/11/12 12:48:52","5","-0.027","9.98","109112","139.933998","patrol01","37.521052","1447300264091","20151112_124852","-0.345"
"2015/11/12 12:48:52","5","-0.059","9.9","109113","139.933998","patrol01","37.521044","1447300264192","20151112_124852","-0.358"
"2015/11/12 12:48:52","5","-0.035","9.75","109114","139.933999","patrol01","37.521036","1447300264292","20151112_124852","-0.334"
"2015/11/12 12:48:52","5","-0.058","9.805","109115","139.933999","patrol01","37.521028","1447300264393","20151112_124852","-0.311"
"2015/11/12 12:48:52","5","-0.094","9.708","109116","139.933999","patrol01","37.52102","1447300264489","20151112_124852","-0.338"
"2015/11/12 12:48:52","5","-0.024","9.763","109117","139.934","patrol01","37.521012","1447300264594","20151112_124852","-0.325"
"2015/11/12 12:48:52","5","-0.022","9.778","109118","139.934","patrol01","37.521004","1447300264690","20151112_124852","-0.254"
"2015/11/12 12:48:52","5","-0.04","9.668","109119","139.934001","patrol01","37.520996","1447300264789","20151112_124852","-0.224"
"2015/11/12 12:48:52","5","-0.066","9.542","109120","139.934001","patrol01","37.520988","1447300264891","20151112_124852","-0.132"
"2015/11/12 12:48:52","4","-0.08","9.653","109121","139.934","patrol01","37.52098","1447300264990","20151112_124852","-0.059"
"2015/11/12 12:48:52","4","-0.032","9.893","109122","139.934","patrol01","37.520973","1447300265093","20151112_124852","-0.068"
"2015/11/12 12:48:52","4","-0.041","9.772","109123","139.933999","patrol01","37.520966","1447300265192","20151112_124852","-0.11"
"2015/11/12 12:48:52","4","-0.046","9.768","109124","139.933998","patrol01","37.520959","1447300265289","20151112_124852","-0.1"
"2015/11/12 12:48:52","4","-0.046","9.65","109125","139.933997","patrol01","37.520952","1447300265390","20151112_124852","-0.118"
"2015/11/12 12:48:52","4","-0.002","9.785","109126","139.933996","patrol01","37.520945","1447300265491","20151112_124852","-0.133"
"2015/11/12 12:48:52","4","-0.017","9.785","109127","139.933996","patrol01","37.520938","1447300265591","20151112_124852","-0.127"
"2015/11/12 12:48:52","4","-0.008","9.867","109128","139.933995","patrol01","37.520931","1447300265692","20151112_124852","0.007"
"2015/11/12 12:48:52","4","0.047","9.754","109129","139.933994","patrol01","37.520924","1447300265793","20151112_124852","-0.051"
"2015/11/12 12:48:52","4","0.059","9.72","109130","139.933993","patrol01","37.520917","1447300265893","20151112_124852","0.026"
"2015/11/12 12:48:52","3","-0.062","9.695","109131","139.933993","patrol01","37.52091","1447300265989","20151112_124852","0.075"
"2015/11/12 12:48:52","3","-0.076","9.866","109132","139.933994","patrol01","37.520903","1447300266090","20151112_124852","0.039"
"2015/11/12 12:48:52","3","-0.113","9.691","109133","139.933994","patrol01","37.520896","1447300266191","20151112_124852","-0.05"
"2015/11/12 12:48:52","3","-0.101","9.656","109134","139.933994","patrol01","37.520889","1447300266291","20151112_124852","-0.131"
"2015/11/12 12:48:52","3","-0.14","9.595","109135","139.933994","patrol01","37.520882","1447300266392","20151112_124852","-0.131"
"2015/11/12 12:48:52","3","-0.104","9.696","109136","139.933995","patrol01","37.520875","1447300266493","20151112_124852","-0.08"
"2015/11/12 12:48:52","3","-0.198","9.589","109137","139.933995","patrol01","37.520868","1447300266593","20151112_124852","-0.077"
"2015/11/12 12:48:52","3","-0.241","9.562","109138","139.933995","patrol01","37.520861","1447300266689","20151112_124852","-0.066"
"2015/11/12 12:48:52","3","-0.289","9.631","109139","139.933996","patrol01","37.520854","1447300266790","20151112_124852","-0.084"
"2015/11/12 12:48:52","3","-0.27","9.835","109140","139.933996","patrol01","37.520847","1447300266890","20151112_124852","-0.027"
"2015/11/12 12:48:52","4","-0.26","9.834","109141","139.933996","patrol01","37.52084","1447300266991","20151112_124852","-0.154"
"2015/11/12 12:48:52","4","-0.34","9.789","109142","139.933995","patrol01","37.520832","1447300267092","20151112_124852","0.015"
"2015/11/12 12:48:52","4","-0.456","9.904","109143","139.933995","patrol01","37.520824","1447300267193","20151112_124852","-0.082"
"2015/11/12 12:48:52","4","-0.469","9.762","109144","139.933994","patrol01","37.520817","1447300267293","20151112_124852","-0.043"
"2015/11/12 12:48:52","4","-0.456","9.514","109145","139.933994","patrol01","37.52081","1447300267389","20151112_124852","0.099"
"2015/11/12 12:48:52","4","-0.436","9.563","109146","139.933994","patrol01","37.520802","1447300267490","20151112_124852","0.045"
"2015/11/12 12:48:52","4","-0.416","9.634","109147","139.933993","patrol01","37.520794","1447300267590","20151112_124852","-0.026"
"2015/11/12 12:48:52","4","-0.452","9.549","109148","139.933993","patrol01","37.520787","1447300267691","20151112_124852","0.095"
"2015/11/12 12:48:52","4","-0.404","9.643","109149","139.933992","patrol01","37.520779","1447300267792","20151112_124852","0.06"
"2015/11/12 12:48:52","4","-0.37","9.797","109150","139.933992","patrol01","37.520772","1447300267893","20151112_124852","0.023"
"2015/11/12 12:48:52","4","-0.434","9.839","109151","139.933991","patrol01","37.520764","1447300267993","20151112_124852","0.012"
"2015/11/12 12:48:52","4","-0.529","9.701","109152","139.93399","patrol01","37.520756","1447300268089","20151112_124852","0.022"
"2015/11/12 12:48:52","4","-0.52","9.745","109153","139.933989","patrol01","37.520748","1447300268190","20151112_124852","-0.005"
"2015/11/12 12:48:52","4","-0.538","9.719","109154","139.933989","patrol01","37.52074","1447300268290","20151112_124852","0.083"
"2015/11/12 12:48:52","4","-0.533","9.712","109155","139.933988","patrol01","37.520732","1447300268391","20151112_124852","0.174"
"2015/11/12 12:48:52","4","-0.556","9.488","109156","139.933987","patrol01","37.520724","1447300268492","20151112_124852","0.158"
"2015/11/12 12:48:52","4","-0.475","9.592","109157","139.933986","patrol01","37.520716","1447300268592","20151112_124852","0.179"
"2015/11/12 12:48:52","4","-0.433","10.042","109158","139.933985","patrol01","37.520708","1447300268693","20151112_124852","0.215"
"2015/11/12 12:48:52","4","-0.428","10.037","109159","139.933984","patrol01","37.5207","1447300268789","20151112_124852","0.175"
"2015/11/12 12:48:52","4","-0.552","9.831","109160","139.933983","patrol01","37.520692","1447300268890","20151112_124852","0.187"
"2015/11/12 12:48:52","4","-0.657","9.683","109161","139.933983","patrol01","37.520685","1447300268990","20151112_124852","0.248"
"2015/11/12 12:48:52","4","-0.644","9.714","109162","139.933983","patrol01","37.520677","1447300269091","20151112_124852","0.221"
"2015/11/12 12:48:52","4","-0.595","9.663","109163","139.933983","patrol01","37.52067","1447300269192","20151112_124852","0.22"
"2015/11/12 12:48:52","4","-0.623","9.365","109164","139.933983","patrol01","37.520663","1447300269292","20151112_124852","0.279"
"2015/11/12 12:48:52","4","-0.664","9.177","109165","139.933983","patrol01","37.520655","1447300269393","20151112_124852","0.329"
"2015/11/12 12:48:52","4","-0.459","9.513","109166","139.933982","patrol01","37.520648","1447300269489","20151112_124852","0.403"
"2015/11/12 12:48:52","4","-0.458","9.943","109167","139.933982","patrol01","37.520641","1447300269589","20151112_124852","0.363"
"2015/11/12 12:48:52","4","-0.532","9.909","109168","139.933982","patrol01","37.520633","1447300269690","20151112_124852","0.349"
"2015/11/12 12:48:52","4","-0.799","9.868","109169","139.933982","patrol01","37.520626","1447300269791","20151112_124852","0.235"
"2015/11/12 12:48:52","4","-0.838","9.927","109170","139.933982","patrol01","37.520619","1447300269892","20151112_124852","0.206"
"2015/11/12 12:48:52","4","-0.894","9.849","109171","139.933981","patrol01","37.520611","1447300269992","20151112_124852","0.196"
"2015/11/12 12:48:52","4","-0.953","9.578","109172","139.93398","patrol01","37.520603","1447300270093","20151112_124852","0.232"
"2015/11/12 12:48:52","4","-0.996","9.695","109173","139.933978","patrol01","37.520596","1447300270189","20151112_124852","0.19"
"2015/11/12 12:48:52","4","-0.947","9.81","109174","139.933977","patrol01","37.520588","1447300270289","20151112_124852","0.238"
"2015/11/12 12:48:52","4","-0.918","9.766","109175","139.933976","patrol01","37.52058","1447300270390","20151112_124852","0.323"
"2015/11/12 12:48:52","4","-0.984","9.637","109176","139.933974","patrol01","37.520573","1447300270491","20151112_124852","0.313"
"2015/11/12 12:48:52","4","-0.989","9.775","109177","139.933973","patrol01","37.520565","1447300270591","20151112_124852","0.268"
"2015/11/12 12:48:52","4","-1.001","9.79","109178","139.933972","patrol01","37.520557","1447300270692","20151112_124852","0.323"
"2015/11/12 12:48:52","4","-0.997","9.704","109179","139.93397","patrol01","37.52055","1447300270793","20151112_124852","0.208"
"2015/11/12 12:48:52","4","-0.933","9.757","109180","139.933969","patrol01","37.520542","1447300270889","20151112_124852","0.234"
"2015/11/12 12:48:52","3","-0.886","9.791","109181","139.933967","patrol01","37.520533","1447300270989","20151112_124852","0.353"
"2015/11/12 12:48:52","3","-0.98","9.718","109182","139.933966","patrol01","37.520524","1447300271090","20151112_124852","0.329"
"2015/11/12 12:48:52","3","-1.005","9.652","109183","139.933964","patrol01","37.520516","1447300271191","20151112_124852","0.305"
"2015/11/12 12:48:52","3","-0.915","9.746","109184","139.933962","patrol01","37.520507","1447300271291","20151112_124852","0.273"
"2015/11/12 12:48:52","3","-0.789","9.803","109185","139.93396","patrol01","37.520498","1447300271392","20151112_124852","0.176"
"2015/11/12 12:48:52","3","-0.735","9.744","109186","139.933958","patrol01","37.520489","1447300271493","20151112_124852","0.118"
"2015/11/12 12:48:52","3","-0.792","9.635","109187","139.933957","patrol01","37.52048","1447300271593","20151112_124852","0.137"
"2015/11/12 12:48:52","3","-0.763","9.592","109188","139.933955","patrol01","37.520471","1447300271689","20151112_124852","0.136"
"2015/11/12 12:48:52","3","-0.727","9.555","109189","139.933953","patrol01","37.520462","1447300271790","20151112_124852","0.123"
"2015/11/12 12:48:52","3","-0.697","9.531","109190","139.933951","patrol01","37.520453","1447300271891","20151112_124852","0.107"
"2015/11/12 12:48:52","4","-0.595","9.586","109191","139.933949","patrol01","37.520444","1447300271991","20151112_124852","0.071"
"2015/11/12 12:48:52","4","-0.55","9.662","109192","139.933947","patrol01","37.520435","1447300272092","20151112_124852","0.013"
"2015/11/12 12:48:52","4","-0.511","9.765","109193","139.933944","patrol01","37.520426","1447300272193","20151112_124852","-0.029"
"2015/11/12 12:48:52","4","-0.437","9.878","109194","139.933942","patrol01","37.520417","1447300272293","20151112_124852","-0.036"
"2015/11/12 12:48:52","4","-0.474","9.834","109195","139.933939","patrol01","37.520409","1447300272389","20151112_124852","-0.038"
"2015/11/12 12:48:52","4","-0.467","9.808","109196","139.933937","patrol01","37.5204","1447300272490","20151112_124852","0.023"
"2015/11/12 12:48:52","4","-0.48","9.832","109197","139.933935","patrol01","37.520391","1447300272591","20151112_124852","0.045"
"2015/11/12 12:48:52","4","-0.523","9.633","109198","139.933932","patrol01","37.520382","1447300272691","20151112_124852","-0.027"
"2015/11/12 12:48:52","4","-0.511","9.504","109199","139.93393","patrol01","37.520373","1447300272792","20151112_124852","0.023"
"2015/11/12 12:48:52","4","-0.427","9.729","109200","139.933927","patrol01","37.520364","1447300272893","20151112_124852","0.012"
"2015/11/12 12:48:52","4","-0.414","9.734","109201","139.933924","patrol01","37.520355","1447300272993","20151112_124852","-0.048"
"2015/11/12 12:48:52","4","-0.416","9.686","109202","139.933921","patrol01","37.520347","1447300273089","20151112_124852","-0.038"
"2015/11/12 12:48:52","4","-0.391","9.87","109203","139.933918","patrol01","37.520338","1447300273190","20151112_124852","-0.02"
"2015/11/12 12:48:52","4","-0.379","9.882","109204","139.933915","patrol01","37.520329","1447300273290","20151112_124852","-0.008"
"2015/11/12 12:48:52","4","-0.437","9.747","109205","139.933911","patrol01","37.52032","1447300273391","20151112_124852","-0.001"
"2015/11/12 12:48:52","4","-0.438","9.719","109206","139.933908","patrol01","37.520311","1447300273492","20151112_124852","0.08"
"2015/11/12 12:48:52","4","-0.429","9.747","109207","139.933905","patrol01","37.520302","1447300273593","20151112_124852","0.014"
"2015/11/12 12:48:52","4","-0.398","9.647","109208","139.933902","patrol01","37.520294","1447300273693","20151112_124852","0.01"
"2015/11/12 12:48:52","4","-0.419","9.641","109209","139.933899","patrol01","37.520285","1447300273789","20151112_124852","-0.035"
"2015/11/12 12:48:52","4","-0.395","9.793","109210","139.933895","patrol01","37.520276","1447300273890","20151112_124852","-0.07"
"2015/11/12 12:48:52","4","-0.403","9.779","109211","139.933892","patrol01","37.520267","1447300273990","20151112_124852","-0.084"
"2015/11/12 12:48:52","4","-0.419","9.704","109212","139.933888","patrol01","37.520259","1447300274091","20151112_124852","-0.127"
"2015/11/12 12:48:52","4","-0.432","9.592","109213","139.933883","patrol01","37.52025","1447300274192","20151112_124852","-0.082"
"2015/11/12 12:48:52","4","-0.4","9.699","109214","139.933879","patrol01","37.520241","1447300274292","20151112_124852","-0.076"
"2015/11/12 12:48:52","4","-0.347","9.771","109215","139.933876","patrol01","37.520232","1447300274389","20151112_124852","-0.101"
"2015/11/12 12:48:52","4","-0.446","9.663","109216","139.933872","patrol01","37.520223","1447300274489","20151112_124852","-0.038"
"2015/11/12 12:48:52","4","-0.431","9.696","109217","139.933868","patrol01","37.520215","1447300274590","20151112_124852","-0.093"
"2015/11/12 12:48:52","4","-0.446","9.718","109218","139.933863","patrol01","37.520206","1447300274690","20151112_124852","-0.048"
"2015/11/12 12:48:52","4","-0.423","9.671","109219","139.933859","patrol01","37.520197","1447300274791","20151112_124852","-0.006"
"2015/11/12 12:48:52","4","-0.383","9.693","109220","139.933855","patrol01","37.520188","1447300274892","20151112_124852","0.074"
"2015/11/12 12:48:52","4","-0.388","9.709","109221","139.933852","patrol01","37.520179","1447300274992","20151112_124852","0.146"
"2015/11/12 12:48:52","4","-0.422","9.653","109222","139.933848","patrol01","37.52017","1447300275093","20151112_124852","0.16"
"2015/11/12 12:48:52","4","-0.434","9.783","109223","139.933845","patrol01","37.520161","1447300275189","20151112_124852","0.166"
"2015/11/12 12:48:52","4","-0.453","9.774","109224","139.933841","patrol01","37.520152","1447300275290","20151112_124852","0.115"
"2015/11/12 12:48:52","4","-0.422","9.873","109225","139.933837","patrol01","37.520143","1447300275390","20151112_124852","0.053"
"2015/11/12 12:48:52","4","-0.432","9.921","109226","139.933834","patrol01","37.520133","1447300275491","20151112_124852","-0.011"
"2015/11/12 12:48:52","4","-0.479","9.782","109227","139.93383","patrol01","37.520124","1447300275592","20151112_124852","-0.011"
"2015/11/12 12:48:52","4","-0.599","9.565","109228","139.933827","patrol01","37.520115","1447300275692","20151112_124852","0.016"
"2015/11/12 12:48:52","4","-0.576","9.655","109229","139.933823","patrol01","37.520106","1447300275793","20151112_124852","-0.031"
"2015/11/12 12:48:52","4","-0.521","9.775","109230","139.93382","patrol01","37.520097","1447300275889","20151112_124852","0.005"
"2015/11/12 12:48:52","5","-0.503","9.673","109231","139.933815","patrol01","37.520088","1447300275989","20151112_124852","0.063"
"2015/11/12 12:48:52","5","-0.508","9.568","109232","139.933811","patrol01","37.520078","1447300276090","20151112_124852","0.095"
"2015/11/12 12:48:52","5","-0.524","9.666","109233","139.933806","patrol01","37.520068","1447300276191","20151112_124852","0.082"
"2015/11/12 12:48:52","5","-0.513","9.654","109234","139.933802","patrol01","37.520058","1447300276291","20151112_124852","0.07"
"2015/11/12 12:48:52","5","-0.529","9.829","109235","139.933797","patrol01","37.520048","1447300276392","20151112_124852","0.028"
"2015/11/12 12:48:52","5","-0.594","9.465","109236","139.933793","patrol01","37.520038","1447300276493","20151112_124852","0.027"
"2015/11/12 12:48:52","5","-0.536","9.591","109237","139.933788","patrol01","37.520028","1447300276589","20151112_124852","0.054"
"2015/11/12 12:48:52","5","-0.493","9.923","109238","139.933784","patrol01","37.520018","1447300276689","20151112_124852","-0.031"
"2015/11/12 12:48:52","5","-0.532","10.042","109239","139.933779","patrol01","37.520008","1447300276790","20151112_124852","-0.019"
"2015/11/12 12:48:52","5","-0.456","9.823","109240","139.933775","patrol01","37.519999","1447300276891","20151112_124852","0.113"
"2015/11/12 12:48:52","6","-0.512","9.916","109241","139.93377","patrol01","37.51999","1447300276991","20151112_124852","0.171"
"2015/11/12 12:48:52","6","-0.549","9.943","109242","139.933766","patrol01","37.519981","1447300277092","20151112_124852","0.16"
"2015/11/12 12:48:52","6","-0.583","9.828","109243","139.933762","patrol01","37.519972","1447300277193","20151112_124852","0.21"
"2015/11/12 12:48:52","6","-0.637","9.652","109244","139.933758","patrol01","37.519964","1447300277289","20151112_124852","0.149"
"2015/11/12 12:48:52","6","-0.588","9.618","109245","139.933754","patrol01","37.519955","1447300277389","20151112_124852","0.104"
"2015/11/12 12:48:52","6","-0.506","9.779","109246","139.93375","patrol01","37.519947","1447300277490","20151112_124852","-0.007"
"2015/11/12 12:48:52","6","-0.509","9.739","109247","139.933746","patrol01","37.519938","1447300277591","20151112_124852","-0.093"
"2015/11/12 12:48:52","6","-0.55","9.672","109248","139.933742","patrol01","37.519929","1447300277691","20151112_124852","-0.105"
"2015/11/12 12:48:52","6","-0.593","9.654","109249","139.933738","patrol01","37.519921","1447300277792","20151112_124852","-0.104"
"2015/11/12 12:48:52","6","-0.573","9.736","109250","139.933733","patrol01","37.519912","1447300277893","20151112_124852","-0.167"
"2015/11/12 12:48:52","4","-0.555","9.647","109251","139.933728","patrol01","37.519903","1447300277993","20151112_124852","-0.108"
"2015/11/12 12:48:52","4","-0.581","9.562","109252","139.933724","patrol01","37.519894","1447300278089","20151112_124852","-0.1"
"2015/11/12 12:48:52","4","-0.556","9.626","109253","139.933718","patrol01","37.519885","1447300278190","20151112_124852","-0.078"
"2015/11/12 12:48:52","4","-0.563","9.627","109254","139.933713","patrol01","37.519876","1447300278291","20151112_124852","-0.026"
"2015/11/12 12:48:52","4","-0.549","9.808","109255","139.933708","patrol01","37.519867","1447300278391","20151112_124852","-0.059"
"2015/11/12 12:48:52","4","-0.596","9.748","109256","139.933703","patrol01","37.519857","1447300278492","20151112_124852","-0.081"
"2015/11/12 12:48:52","4","-0.604","9.611","109257","139.933698","patrol01","37.519848","1447300278593","20151112_124852","-0.086"
"2015/11/12 12:48:52","4","-0.561","9.729","109258","139.933693","patrol01","37.519839","1447300278693","20151112_124852","-0.105"
"2015/11/12 12:48:52","4","-0.517","9.888","109259","139.933688","patrol01","37.519831","1447300278789","20151112_124852","-0.104"
"2015/11/12 12:48:52","4","-0.552","9.756","109260","139.933683","patrol01","37.519821","1447300278895","20151112_124852","-0.057"
"2015/11/12 12:48:52","4","-0.572","9.855","109261","139.933677","patrol01","37.519811","1447300278991","20151112_124852","-0.062"
"2015/11/12 12:48:52","4","-0.537","9.922","109262","139.933672","patrol01","37.5198","1447300279090","20151112_124852","-0.067"
"2015/11/12 12:48:52","4","-0.586","9.692","109263","139.933666","patrol01","37.519789","1447300279192","20151112_124852","-0.036"
"2015/11/12 12:48:52","4","-0.592","9.584","109264","139.93366","patrol01","37.519778","1447300279291","20151112_124852","-0.109"
"2015/11/12 12:48:52","4","-0.534","9.674","109265","139.933655","patrol01","37.519767","1447300279393","20151112_124852","-0.105"
"2015/11/12 12:48:52","4","-0.531","9.623","109266","139.933649","patrol01","37.519757","1447300279489","20151112_124852","-0.107"
"2015/11/12 12:48:52","4","-0.491","9.795","109267","139.933644","patrol01","37.519746","1447300279590","20151112_124852","-0.081"
"2015/11/12 12:48:52","4","-0.518","9.874","109268","139.933638","patrol01","37.519735","1447300279690","20151112_124852","-0.106"
"2015/11/12 12:48:52","4","-0.553","9.774","109269","139.933632","patrol01","37.519724","1447300279791","20151112_124852","-0.122"
"2015/11/12 12:48:52","4","-0.545","9.825","109270","139.933627","patrol01","37.519713","1447300279892","20151112_124852","-0.124"
"2015/11/12 12:48:52","6","-0.528","9.767","109271","139.933622","patrol01","37.519704","1447300279993","20151112_124852","-0.139"
"2015/11/12 12:48:52","6","-0.498","9.773","109272","139.933619","patrol01","37.519695","1447300280093","20151112_124852","-0.201"
"2015/11/12 12:48:52","6","-0.505","9.767","109273","139.933615","patrol01","37.519686","1447300280189","20151112_124852","-0.253"
"2015/11/12 12:48:52","6","-0.542","9.632","109274","139.933611","patrol01","37.519677","1447300280290","20151112_124852","-0.289"
"2015/11/12 12:48:52","6","-0.532","9.584","109275","139.933607","patrol01","37.519668","1447300280390","20151112_124852","-0.291"
"2015/11/12 12:48:52","6","-0.422","9.675","109276","139.933603","patrol01","37.519659","1447300280491","20151112_124852","-0.221"
"2015/11/12 12:48:52","6","-0.323","9.745","109277","139.933599","patrol01","37.51965","1447300280592","20151112_124852","-0.17"
"2015/11/12 12:48:52","6","-0.344","9.602","109278","139.933595","patrol01","37.519641","1447300280692","20151112_124852","-0.187"
"2015/11/12 12:48:52","6","-0.382","9.588","109279","139.933591","patrol01","37.519632","1447300280793","20151112_124852","-0.103"
"2015/11/12 12:48:52","6","-0.304","9.819","109280","139.933588","patrol01","37.519623","1447300280889","20151112_124852","-0.069"
"2015/11/12 12:48:52","6","-0.308","9.707","109281","139.933583","patrol01","37.519615","1447300280990","20151112_124852","-0.086"
"2015/11/12 12:48:52","6","-0.369","9.588","109282","139.933579","patrol01","37.519608","1447300281090","20151112_124852","-0.153"
"2015/11/12 12:48:52","6","-0.269","9.671","109283","139.933574","patrol01","37.5196","1447300281191","20151112_124852","-0.198"
"2015/11/12 12:48:52","6","-0.262","9.735","109284","139.93357","patrol01","37.519592","1447300281292","20151112_124852","-0.108"
"2015/11/12 12:48:52","6","-0.215","9.808","109285","139.933565","patrol01","37.519584","1447300281392","20151112_124852","-0.133"
"2015/11/12 12:48:52","6","-0.277","9.866","109286","139.933561","patrol01","37.519577","1447300281493","20151112_124852","-0.196"
"2015/11/12 12:48:52","6","-0.304","9.912","109287","139.933556","patrol01","37.519569","1447300281589","20151112_124852","-0.165"
"2015/11/12 12:48:52","6","-0.293","9.803","109288","139.933552","patrol01","37.519562","1447300281689","20151112_124852","-0.118"
"2015/11/12 12:48:52","6","-0.319","9.721","109289","139.933547","patrol01","37.519554","1447300281790","20151112_124852","-0.163"
"2015/11/12 12:48:52","6","-0.334","9.616","109290","139.933543","patrol01","37.519546","1447300281891","20151112_124852","-0.152"
"2015/11/12 12:48:52","7","-0.263","9.779","109291","139.93354","patrol01","37.519537","1447300281992","20151112_124852","-0.232"
"2015/11/12 12:48:52","7","-0.245","9.863","109292","139.933537","patrol01","37.519528","1447300282092","20151112_124852","-0.263"
"2015/11/12 12:48:52","7","-0.3","9.69","109293","139.933534","patrol01","37.519519","1447300282193","20151112_124852","-0.187"
"2015/11/12 12:48:52","7","-0.332","9.588","109294","139.933531","patrol01","37.51951","1447300282289","20151112_124852","-0.052"
"2015/11/12 12:48:52","7","-0.286","9.746","109295","139.933528","patrol01","37.519501","1447300282389","20151112_124852","-0.13"
"2015/11/12 12:48:52","7","-0.235","9.788","109296","139.933525","patrol01","37.519492","1447300282490","20151112_124852","-0.028"
"2015/11/12 12:48:52","7","-0.191","10.029","109297","139.933522","patrol01","37.519483","1447300282591","20151112_124852","-0.167"
"2015/11/12 12:48:52","7","-0.26","9.906","109298","139.933519","patrol01","37.519474","1447300282692","20151112_124852","-0.212"
"2015/11/12 12:48:52","7","-0.472","9.386","109299","139.933516","patrol01","37.519465","1447300282792","20151112_124852","-0.337"
"2015/11/12 12:48:52","7","-0.36","9.535","109300","139.933513","patrol01","37.519456","1447300282893","20151112_124852","-0.351"
"2015/11/12 12:48:52","7","-0.156","9.864","109301","139.933508","patrol01","37.519447","1447300282989","20151112_124852","-0.406"
"2015/11/12 12:48:52","7","-0.11","9.814","109302","139.933501","patrol01","37.519437","1447300283089","20151112_124852","-0.321"
"2015/11/12 12:48:52","7","-0.152","9.656","109303","139.933495","patrol01","37.519428","1447300283190","20151112_124852","-0.09"
"2015/11/12 12:48:52","7","-0.165","9.653","109304","139.933489","patrol01","37.519418","1447300283291","20151112_124852","-0.062"
"2015/11/12 12:48:52","7","-0.178","9.711","109305","139.933483","patrol01","37.519408","1447300283391","20151112_124852","-0.114"
"2015/11/12 12:48:52","7","-0.118","9.66","109306","139.933477","patrol01","37.519399","1447300283492","20151112_124852","-0.14"
"2015/11/12 12:48:52","7","-0.084","9.558","109307","139.93347","patrol01","37.519389","1447300283593","20151112_124852","-0.139"
"2015/11/12 12:48:52","7","-0.086","9.46","109308","139.933464","patrol01","37.519379","1447300283694","20151112_124852","-0.135"
"2015/11/12 12:48:52","7","-0.079","9.489","109309","139.933458","patrol01","37.51937","1447300283789","20151112_124852","-0.131"
"2015/11/12 12:48:52","7","-0.011","9.696","109310","139.933452","patrol01","37.51936","1447300283890","20151112_124852","-0.127"
"2015/11/12 12:48:52","5","0.004","9.811","109311","139.933447","patrol01","37.519352","1447300283991","20151112_124852","-0.184"
"2015/11/12 12:48:52","5","-0.025","9.811","109312","139.933442","patrol01","37.519343","1447300284091","20151112_124852","-0.118"
"2015/11/12 12:48:52","5","-0.022","9.935","109313","139.933437","patrol01","37.519335","1447300284192","20151112_124852","-0.185"
"2015/11/12 12:48:52","5","-0.057","9.912","109314","139.933432","patrol01","37.519326","1447300284293","20151112_124852","-0.269"
"2015/11/12 12:48:52","5","-0.052","9.877","109315","139.933427","patrol01","37.519317","1447300284394","20151112_124852","-0.251"
"2015/11/12 12:48:52","5","-0.058","9.9","109316","139.933422","patrol01","37.519309","1447300284489","20151112_124852","-0.255"
"2015/11/12 12:48:52","5","-0.079","9.826","109317","139.933417","patrol01","37.519301","1447300284590","20151112_124852","-0.346"
"2015/11/12 12:48:52","5","-0.107","9.857","109318","139.933412","patrol01","37.519292","1447300284691","20151112_124852","-0.349"
"2015/11/12 12:48:52","5","-0.105","9.937","109319","139.933407","patrol01","37.519283","1447300284791","20151112_124852","-0.335"
"2015/11/12 12:48:52","5","-0.183","9.858","109320","139.933402","patrol01","37.519275","1447300284892","20151112_124852","-0.364"
"2015/11/12 12:48:52","5","-0.26","9.82","109321","139.933397","patrol01","37.519266","1447300284993","20151112_124852","-0.385"
"2015/11/12 12:48:52","5","-0.267","9.77","109322","139.933393","patrol01","37.519258","1447300285093","20151112_124852","-0.368"
"2015/11/12 12:48:52","5","-0.298","9.797","109323","139.933389","patrol01","37.51925","1447300285189","20151112_124852","-0.39"
"2015/11/12 12:48:52","5","-0.335","9.778","109324","139.933384","patrol01","37.519241","1447300285290","20151112_124852","-0.393"
"2015/11/12 12:48:52","5","-0.344","9.718","109325","139.93338","patrol01","37.519233","1447300285391","20151112_124852","-0.38"
"2015/11/12 12:48:52","5","-0.408","9.67","109326","139.933376","patrol01","37.519224","1447300285491","20151112_124852","-0.442"
"2015/11/12 12:48:52","5","-0.334","9.716","109327","139.933371","patrol01","37.519215","1447300285592","20151112_124852","-0.383"
"2015/11/12 12:48:52","5","-0.341","9.755","109328","139.933367","patrol01","37.519207","1447300285693","20151112_124852","-0.364"
"2015/11/12 12:48:52","5","-0.378","9.644","109329","139.933363","patrol01","37.519198","1447300285793","20151112_124852","-0.398"
"2015/11/12 12:48:52","5","-0.41","9.725","109330","139.933359","patrol01","37.51919","1447300285889","20151112_124852","-0.3"
"2015/11/12 12:48:52","5","-0.405","9.81","109331","139.933352","patrol01","37.519182","1447300285990","20151112_124852","-0.277"
"2015/11/12 12:48:52","5","-0.389","9.768","109332","139.933345","patrol01","37.519174","1447300286090","20151112_124852","-0.271"
"2015/11/12 12:48:52","5","-0.466","9.576","109333","139.933338","patrol01","37.519167","1447300286191","20151112_124852","-0.233"
"2015/11/12 12:48:52","5","-0.419","9.791","109334","139.933331","patrol01","37.519159","1447300286292","20151112_124852","-0.242"
"2015/11/12 12:48:52","5","-0.352","9.901","109335","139.933324","patrol01","37.519151","1447300286393","20151112_124852","-0.288"
"2015/11/12 12:48:52","5","-0.429","9.739","109336","139.933317","patrol01","37.519143","1447300286493","20151112_124852","-0.265"
"2015/11/12 12:48:52","5","-0.49","9.665","109337","139.933311","patrol01","37.519136","1447300286589","20151112_124852","-0.255"
"2015/11/12 12:48:52","5","-0.5","9.68","109338","139.933304","patrol01","37.519128","1447300286690","20151112_124852","-0.308"
"2015/11/12 12:48:52","5","-0.523","9.642","109339","139.933297","patrol01","37.51912","1447300286790","20151112_124852","-0.328"
"2015/11/12 12:48:52","5","-0.478","9.579","109340","139.93329","patrol01","37.519112","1447300286891","20151112_124852","-0.301"
"2015/11/12 12:48:52","6","-0.441","9.759","109341","139.933287","patrol01","37.519104","1447300286992","20151112_124852","-0.331"
"2015/11/12 12:48:52","6","-0.438","9.898","109342","139.933285","patrol01","37.519096","1447300287092","20151112_124852","-0.405"
"2015/11/12 12:48:52","6","-0.506","9.859","109343","139.933283","patrol01","37.519088","1447300287193","20151112_124852","-0.417"
"2015/11/12 12:48:52","6","-0.523","9.829","109344","139.933281","patrol01","37.51908","1447300287289","20151112_124852","-0.452"
"2015/11/12 12:48:52","6","-0.503","9.862","109345","139.933278","patrol01","37.519072","1447300287390","20151112_124852","-0.483"
"2015/11/12 12:48:52","6","-0.501","9.787","109346","139.933276","patrol01","37.519064","1447300287490","20151112_124852","-0.493"
"2015/11/12 12:48:52","6","-0.494","9.752","109347","139.933274","patrol01","37.519055","1447300287591","20151112_124852","-0.451"
"2015/11/12 12:48:52","6","-0.509","9.715","109348","139.933272","patrol01","37.519047","1447300287692","20151112_124852","-0.453"
"2015/11/12 12:48:52","6","-0.501","9.653","109349","139.933269","patrol01","37.519039","1447300287792","20151112_124852","-0.386"
"2015/11/12 12:48:52","6","-0.465","9.682","109350","139.933267","patrol01","37.519031","1447300287893","20151112_124852","-0.413"
"2015/11/12 12:48:52","8","-0.451","9.591","109351","139.933266","patrol01","37.519023","1447300287989","20151112_124852","-0.375"
"2015/11/12 12:48:52","8","-0.44","9.789","109352","139.933264","patrol01","37.519014","1447300288089","20151112_124852","-0.405"
"2015/11/12 12:48:52","8","-0.443","9.807","109353","139.933263","patrol01","37.519005","1447300288190","20151112_124852","-0.207"
"2015/11/12 12:48:52","8","-0.455","9.833","109354","139.933262","patrol01","37.518996","1447300288291","20151112_124852","-0.161"
"2015/11/12 12:48:52","8","-0.557","9.68","109355","139.93326","patrol01","37.518988","1447300288392","20151112_124852","-0.287"
"2015/11/12 12:48:52","8","-0.614","9.712","109356","139.933259","patrol01","37.518979","1447300288492","20151112_124852","-0.161"
"2015/11/12 12:48:52","8","-0.512","9.855","109357","139.933257","patrol01","37.51897","1447300288593","20151112_124852","-0.128"
"2015/11/12 12:48:52","8","-0.527","9.702","109358","139.933256","patrol01","37.518962","1447300288689","20151112_124852","-0.217"
"2015/11/12 12:48:52","8","-0.558","9.627","109359","139.933255","patrol01","37.518953","1447300288789","20151112_124852","-0.164"
"2015/11/12 12:48:52","8","-0.539","9.815","109360","139.933253","patrol01","37.518944","1447300288890","20151112_124852","-0.201"
"2015/11/12 12:48:52","8","-0.513","9.72","109361","139.933253","patrol01","37.518934","1447300288991","20151112_124852","-0.194"
"2015/11/12 12:48:52","8","-0.525","9.615","109362","139.933254","patrol01","37.518924","1447300289091","20151112_124852","-0.21"
"2015/11/12 12:48:52","8","-0.488","9.718","109363","139.933254","patrol01","37.518914","1447300289192","20151112_124852","-0.174"
"2015/11/12 12:48:52","8","-0.455","9.804","109364","139.933255","patrol01","37.518904","1447300289294","20151112_124852","-0.199"
"2015/11/12 12:48:52","8","-0.461","9.662","109365","139.933255","patrol01","37.518894","1447300289389","20151112_124852","-0.213"
"2015/11/12 12:48:52","8","-0.449","9.736","109366","139.933255","patrol01","37.518884","1447300289489","20151112_124852","-0.122"
"2015/11/12 12:48:52","8","-0.445","9.748","109367","139.933256","patrol01","37.518874","1447300289590","20151112_124852","-0.146"
"2015/11/12 12:48:52","8","-0.522","9.635","109368","139.933256","patrol01","37.518863","1447300289691","20151112_124852","-0.127"
"2015/11/12 12:48:52","8","-0.472","9.716","109369","139.933257","patrol01","37.518853","1447300289791","20151112_124852","-0.079"
"2015/11/12 12:48:52","8","-0.448","9.695","109370","139.933257","patrol01","37.518843","1447300289892","20151112_124852","-0.053"
"2015/11/12 12:48:52","6","-0.444","9.656","109371","139.933255","patrol01","37.518834","1447300289993","20151112_124852","-0.082"
"2015/11/12 12:48:52","6","-0.423","9.67","109372","139.933253","patrol01","37.518826","1447300290089","20151112_124852","-0.045"
"2015/11/12 12:48:52","6","-0.426","9.663","109373","139.933252","patrol01","37.518817","1447300290189","20151112_124852","-0.089"
"2015/11/12 12:48:52","6","-0.419","9.673","109374","139.93325","patrol01","37.518808","1447300290290","20151112_124852","-0.064"
"2015/11/12 12:48:52","6","-0.395","9.75","109375","139.933248","patrol01","37.5188","1447300290391","20151112_124852","-0.037"
"2015/11/12 12:48:52","6","-0.41","9.748","109376","139.933246","patrol01","37.518791","1447300290491","20151112_124852","-0.018"
"2015/11/12 12:48:52","6","-0.414","9.653","109377","139.933244","patrol01","37.518782","1447300290592","20151112_124852","-0.034"
"2015/11/12 12:48:52","6","-0.444","9.535","109378","139.933242","patrol01","37.518773","1447300290693","20151112_124852","-0.029"
"2015/11/12 12:48:52","6","-0.413","9.731","109379","139.93324","patrol01","37.518765","1447300290793","20151112_124852","-0.099"
"2015/11/12 12:48:52","6","-0.348","9.699","109380","139.933238","patrol01","37.518756","1447300290889","20151112_124852","-0.08"
"2015/11/12 12:48:52","4","-0.401","9.798","109381","139.933236","patrol01","37.518748","1447300290990","20151112_124852","-0.207"
"2015/11/12 12:48:52","4","-0.408","9.899","109382","139.933234","patrol01","37.51874","1447300291091","20151112_124852","-0.305"
"2015/11/12 12:48:52","4","-0.473","9.584","109383","139.933231","patrol01","37.518731","1447300291191","20151112_124852","-0.197"
"2015/11/12 12:48:52","4","-0.427","9.707","109384","139.933229","patrol01","37.518723","1447300291292","20151112_124852","-0.223"
"2015/11/12 12:48:52","4","-0.395","9.558","109385","139.933227","patrol01","37.518715","1447300291393","20151112_124852","-0.147"
"2015/11/12 12:48:52","4","-0.336","9.849","109386","139.933224","patrol01","37.518706","1447300291493","20151112_124852","-0.144"
"2015/11/12 12:48:52","4","-0.278","9.845","109387","139.933222","patrol01","37.518698","1447300291589","20151112_124852","-0.239"
"2015/11/12 12:48:52","4","-0.336","9.498","109388","139.93322","patrol01","37.51869","1447300291690","20151112_124852","-0.085"
"2015/11/12 12:48:52","4","-0.269","9.575","109389","139.933218","patrol01","37.518682","1447300291791","20151112_124852","-0.088"
"2015/11/12 12:48:52","4","-0.182","9.728","109390","139.933215","patrol01","37.518673","1447300291891","20151112_124852","-0.151"
"2015/11/12 12:48:52","3","-0.1","9.787","109391","139.933215","patrol01","37.518665","1447300291992","20151112_124852","-0.104"
"2015/11/12 12:48:52","3","-0.057","9.709","109392","139.933215","patrol01","37.518657","1447300292092","20151112_124852","-0.042"
"2015/11/12 12:48:52","3","-0.056","9.819","109393","139.933214","patrol01","37.518648","1447300292193","20151112_124852","0.026"
"2015/11/12 12:48:52","3","-0.059","9.831","109394","139.933214","patrol01","37.518641","1447300292289","20151112_124852","0.08"
"2015/11/12 12:48:52","3","-0.111","9.635","109395","139.933214","patrol01","37.518632","1447300292390","20151112_124852","0.095"
"2015/11/12 12:48:52","3","-0.101","9.619","109396","139.933214","patrol01","37.518624","1447300292490","20151112_124852","0.036"
"2015/11/12 12:48:52","3","-0.032","9.771","109397","139.933214","patrol01","37.518616","1447300292591","20151112_124852","0.017"
"2015/11/12 12:48:52","3","-0.02","9.722","109398","139.933213","patrol01","37.518607","1447300292692","20151112_124852","-0.045"
"2015/11/12 12:48:52","3","-0.055","9.634","109399","139.933213","patrol01","37.518599","1447300292792","20151112_124852","-0.16"
"2015/11/12 12:48:52","3","-0.095","9.727","109400","139.933213","patrol01","37.518591","1447300292893","20151112_124852","-0.342"
"2015/11/12 12:48:52","3","-0.039","9.856","109401","139.933211","patrol01","37.518584","1447300292994","20151112_124852","-0.326"
"2015/11/12 12:48:52","3","0.009","9.969","109402","139.933209","patrol01","37.518578","1447300293090","20151112_124852","-0.421"
"2015/11/12 12:48:52","3","-0.013","9.806","109403","139.933206","patrol01","37.518572","1447300293189","20151112_124852","-0.487"
"2015/11/12 12:48:52","3","-0.085","9.672","109404","139.933204","patrol01","37.518565","1447300293291","20151112_124852","-0.489"
"2015/11/12 12:48:52","3","-0.042","9.739","109405","139.933202","patrol01","37.518559","1447300293390","20151112_124852","-0.444"
"2015/11/12 12:48:52","3","-0.034","9.721","109406","139.933199","patrol01","37.518552","1447300293492","20151112_124852","-0.397"
"2015/11/12 12:48:52","3","0.005","9.639","109407","139.933197","patrol01","37.518546","1447300293591","20151112_124852","-0.353"
"2015/11/12 12:48:52","3","-0.001","9.656","109408","139.933195","patrol01","37.51854","1447300293689","20151112_124852","-0.246"
"2015/11/12 12:48:52","3","0.005","9.667","109409","139.933193","patrol01","37.518533","1447300293790","20151112_124852","-0.182"
"2015/11/12 12:48:52","3","-0.047","9.595","109410","139.93319","patrol01","37.518527","1447300293890","20151112_124852","-0.158"
"2015/11/12 12:48:52","5","0.033","9.744","109411","139.933191","patrol01","37.518519","1447300293991","20151112_124852","-0.148"
"2015/11/12 12:48:52","5","0.016","9.721","109412","139.933192","patrol01","37.51851","1447300294092","20151112_124852","-0.186"
"2015/11/12 12:48:52","5","0.028","9.719","109413","139.933193","patrol01","37.518501","1447300294192","20151112_124852","-0.182"
"2015/11/12 12:48:52","5","0.002","9.703","109414","139.933195","patrol01","37.518493","1447300294293","20151112_124852","-0.129"
"2015/11/12 12:48:52","5","-0.017","9.625","109415","139.933196","patrol01","37.518484","1447300294389","20151112_124852","-0.272"
"2015/11/12 12:48:52","5","-0.03","9.65","109416","139.933197","patrol01","37.518476","1447300294489","20151112_124852","-0.257"
"2015/11/12 12:48:52","5","-0.043","9.627","109417","139.933198","patrol01","37.518467","1447300294590","20151112_124852","-0.247"
"2015/11/12 12:48:52","5","-0.014","9.676","109418","139.933199","patrol01","37.518458","1447300294691","20151112_124852","-0.266"
"2015/11/12 12:48:52","5","0.025","9.806","109419","139.933201","patrol01","37.51845","1447300294792","20151112_124852","-0.288"
"2015/11/12 12:48:52","5","0.008","9.817","109420","139.933202","patrol01","37.518441","1447300294892","20151112_124852","-0.357"
"2015/11/12 12:48:52","4","0.044","9.772","109421","139.933202","patrol01","37.518433","1447300294993","20151112_124852","-0.337"
"2015/11/12 12:48:52","4","0.082","9.651","109422","139.933202","patrol01","37.518426","1447300295089","20151112_124852","-0.264"
"2015/11/12 12:48:52","4","0.127","9.681","109423","139.933203","patrol01","37.518419","1447300295189","20151112_124852","-0.262"
"2015/11/12 12:48:52","4","0.169","9.605","109424","139.933203","patrol01","37.518411","1447300295290","20151112_124852","-0.307"
"2015/11/12 12:48:52","4","0.243","9.711","109425","139.933203","patrol01","37.518404","1447300295391","20151112_124852","-0.426"
"2015/11/12 12:48:52","4","0.325","9.859","109426","139.933203","patrol01","37.518396","1447300295492","20151112_124852","-0.407"
"2015/11/12 12:48:52","4","0.369","9.869","109427","139.933203","patrol01","37.518389","1447300295592","20151112_124852","-0.43"
"2015/11/12 12:48:52","4","0.338","9.688","109428","139.933204","patrol01","37.518382","1447300295693","20151112_124852","-0.499"
"2015/11/12 12:48:52","4","0.327","9.6","109429","139.933204","patrol01","37.518374","1447300295789","20151112_124852","-0.539"
"2015/11/12 12:48:52","4","0.407","9.741","109430","139.933204","patrol01","37.518367","1447300295889","20151112_124852","-0.502"
"2015/11/12 12:48:52","4","0.55","9.744","109431","139.933204","patrol01","37.518361","1447300295990","20151112_124852","-0.5"
"2015/11/12 12:48:52","4","0.638","9.578","109432","139.933204","patrol01","37.518355","1447300296091","20151112_124852","-0.444"
"2015/11/12 12:48:52","4","0.653","9.448","109433","139.933204","patrol01","37.518349","1447300296191","20151112_124852","-0.364"
"2015/11/12 12:48:52","4","0.682","9.605","109434","139.933204","patrol01","37.518343","1447300296292","20151112_124852","-0.315"
"2015/11/12 12:48:52","4","0.757","9.747","109435","139.933204","patrol01","37.518337","1447300296393","20151112_124852","-0.279"
"2015/11/12 12:48:52","4","0.743","9.754","109436","139.933205","patrol01","37.518331","1447300296493","20151112_124852","-0.27"
"2015/11/12 12:48:52","4","0.765","9.725","109437","139.933205","patrol01","37.518326","1447300296589","20151112_124852","-0.247"
"2015/11/12 12:48:52","4","0.781","9.795","109438","139.933205","patrol01","37.51832","1447300296690","20151112_124852","-0.205"
"2015/11/12 12:48:52","4","0.746","9.84","109439","139.933205","patrol01","37.518314","1447300296791","20151112_124852","-0.211"
"2015/11/12 12:48:52","4","0.724","9.736","109440","139.933205","patrol01","37.518308","1447300296891","20151112_124852","-0.217"
"2015/11/12 12:48:52","4","0.741","9.756","109441","139.933205","patrol01","37.518303","1447300296992","20151112_124852","-0.266"
"2015/11/12 12:48:52","4","0.732","9.786","109442","139.933205","patrol01","37.518297","1447300297093","20151112_124852","-0.283"
"2015/11/12 12:48:52","4","0.734","9.802","109443","139.933206","patrol01","37.518292","1447300297193","20151112_124852","-0.248"
"2015/11/12 12:48:52","4","0.765","9.69","109444","139.933206","patrol01","37.518286","1447300297289","20151112_124852","-0.218"
"2015/11/12 12:48:52","4","0.788","9.749","109445","139.933206","patrol01","37.518281","1447300297390","20151112_124852","-0.282"
"2015/11/12 12:48:52","4","0.863","9.855","109446","139.933207","patrol01","37.518275","1447300297491","20151112_124852","-0.289"
"2015/11/12 12:48:52","4","0.853","9.776","109447","139.933207","patrol01","37.51827","1447300297591","20151112_124852","-0.267"
"2015/11/12 12:48:52","4","0.886","9.865","109448","139.933207","patrol01","37.518264","1447300297692","20151112_124852","-0.276"
"2015/11/12 12:48:52","4","0.893","9.749","109449","139.933208","patrol01","37.518258","1447300297793","20151112_124852","-0.248"
"2015/11/12 12:48:52","4","0.88","9.653","109450","139.933208","patrol01","37.518253","1447300297893","20151112_124852","-0.195"
"2015/11/12 12:48:52","4","0.889","9.741","109451","139.933209","patrol01","37.518248","1447300297989","20151112_124852","-0.224"
"2015/11/12 12:48:52","4","0.872","9.636","109452","139.933211","patrol01","37.518244","1447300298090","20151112_124852","-0.121"
"2015/11/12 12:48:52","4","0.845","9.472","109453","139.933213","patrol01","37.51824","1447300298190","20151112_124852","-0.039"
"2015/11/12 12:48:52","4","0.94","9.696","109454","139.933215","patrol01","37.518235","1447300298291","20151112_124852","-0.053"
"2015/11/12 12:48:52","4","0.932","9.837","109455","139.933216","patrol01","37.518231","1447300298392","20151112_124852","-0.223"
"2015/11/12 12:48:52","4","0.902","9.686","109456","139.933218","patrol01","37.518226","1447300298493","20151112_124852","-0.23"
"2015/11/12 12:48:52","4","0.925","9.709","109457","139.93322","patrol01","37.518222","1447300298593","20151112_124852","-0.206"
"2015/11/12 12:48:52","4","0.907","9.698","109458","139.933222","patrol01","37.518218","1447300298689","20151112_124852","-0.249"
"2015/11/12 12:48:52","4","0.894","9.718","109459","139.933223","patrol01","37.518213","1447300298790","20151112_124852","-0.293"
"2015/11/12 12:48:52","4","0.851","9.689","109460","139.933225","patrol01","37.518209","1447300298890","20151112_124852","-0.304"
"2015/11/12 12:48:52","4","0.913","9.709","109461","139.933226","patrol01","37.518205","1447300298991","20151112_124852","-0.357"
"2015/11/12 12:48:52","4","0.95","9.745","109462","139.933227","patrol01","37.518203","1447300299092","20151112_124852","-0.274"
"2015/11/12 12:48:52","4","0.922","9.701","109463","139.933227","patrol01","37.5182","1447300299193","20151112_124852","-0.269"
"2015/11/12 12:48:52","4","0.846","9.588","109464","139.933227","patrol01","37.518198","1447300299293","20151112_124852","-0.382"
"2015/11/12 12:48:52","4","0.783","9.592","109465","139.933228","patrol01","37.518195","1447300299389","20151112_124852","-0.537"
"2015/11/12 12:48:52","4","0.746","9.596","109466","139.933228","patrol01","37.518192","1447300299490","20151112_124852","-0.617"
"2015/11/12 12:48:52","4","0.749","9.644","109467","139.933229","patrol01","37.51819","1447300299590","20151112_124852","-0.579"
"2015/11/12 12:48:52","4","0.72","9.645","109468","139.933229","patrol01","37.518187","1447300299691","20151112_124852","-0.533"
"2015/11/12 12:48:52","4","0.694","9.731","109469","139.933229","patrol01","37.518185","1447300299792","20151112_124852","-0.485"
"2015/11/12 12:48:52","4","0.672","9.647","109470","139.93323","patrol01","37.518182","1447300299892","20151112_124852","-0.403"
"2015/11/12 12:48:52","3","0.74","9.729","109471","139.93323","patrol01","37.518179","1447300299993","20151112_124852","-0.373"
"2015/11/12 12:48:52","3","0.716","9.691","109472","139.93323","patrol01","37.518177","1447300300089","20151112_124852","-0.448"
"2015/11/12 12:48:52","3","0.709","9.653","109473","139.93323","patrol01","37.518174","1447300300189","20151112_124852","-0.539"
"2015/11/12 12:48:52","3","0.699","9.62","109474","139.93323","patrol01","37.518171","1447300300290","20151112_124852","-0.557"
"2015/11/12 12:48:52","3","0.725","9.773","109475","139.93323","patrol01","37.518169","1447300300391","20151112_124852","-0.519"
"2015/11/12 12:48:52","3","0.661","9.697","109476","139.93323","patrol01","37.518166","1447300300492","20151112_124852","-0.524"
"2015/11/12 12:48:52","3","0.653","9.646","109477","139.93323","patrol01","37.518163","1447300300592","20151112_124852","-0.508"
"2015/11/12 12:48:52","3","0.751","9.79","109478","139.93323","patrol01","37.51816","1447300300693","20151112_124852","-0.5"
"2015/11/12 12:48:52","3","0.724","9.736","109479","139.93323","patrol01","37.518158","1447300300789","20151112_124852","-0.503"
"2015/11/12 12:48:52","3","0.74","9.657","109480","139.93323","patrol01","37.518155","1447300300889","20151112_124852","-0.513"
"2015/11/12 12:48:52","4","0.772","9.716","109481","139.93323","patrol01","37.518154","1447300300990","20151112_124852","-0.503"
"2015/11/12 12:48:52","4","0.806","9.68","109482","139.933229","patrol01","37.518155","1447300301091","20151112_124852","-0.427"
"2015/11/12 12:48:52","4","0.821","9.657","109483","139.933229","patrol01","37.518156","1447300301192","20151112_124852","-0.39"
"2015/11/12 12:48:52","4","0.854","9.707","109484","139.933228","patrol01","37.518157","1447300301292","20151112_124852","-0.422"
"2015/11/12 12:48:52","4","0.837","9.685","109485","139.933228","patrol01","37.518158","1447300301393","20151112_124852","-0.501"
"2015/11/12 12:48:52","4","0.801","9.656","109486","139.933227","patrol01","37.518158","1447300301489","20151112_124852","-0.528"
"2015/11/12 12:48:52","4","0.759","9.731","109487","139.933227","patrol01","37.518159","1447300301589","20151112_124852","-0.492"
"2015/11/12 12:48:52","4","0.689","9.68","109488","139.933226","patrol01","37.51816","1447300301690","20151112_124852","-0.452"
"2015/11/12 12:48:52","4","0.635","9.661","109489","139.933226","patrol01","37.518161","1447300301791","20151112_124852","-0.445"
"2015/11/12 12:48:52","4","0.574","9.712","109490","139.933225","patrol01","37.518162","1447300301892","20151112_124852","-0.459"
"2015/11/12 12:48:52","4","0.507","9.68","109491","139.933225","patrol01","37.518162","1447300301992","20151112_124852","-0.471"
"2015/11/12 12:48:52","4","0.47","9.702","109492","139.933226","patrol01","37.518161","1447300302093","20151112_124852","-0.47"
"2015/11/12 12:48:52","4","0.407","9.706","109493","139.933227","patrol01","37.51816","1447300302189","20151112_124852","-0.465"
"2015/11/12 12:48:52","4","0.315","9.694","109494","139.933228","patrol01","37.518159","1447300302289","20151112_124852","-0.455"
"2015/11/12 12:48:52","4","0.157","9.709","109495","139.933229","patrol01","37.518159","1447300302390","20151112_124852","-0.455"
"2015/11/12 12:48:52","4","0.066","9.68","109496","139.93323","patrol01","37.518158","1447300302491","20151112_124852","-0.467"
"2015/11/12 12:48:52","4","0.048","9.72","109497","139.93323","patrol01","37.518157","1447300302591","20151112_124852","-0.471"
"2015/11/12 12:48:52","4","-0.103","9.736","109498","139.933231","patrol01","37.518157","1447300302692","20151112_124852","-0.463"
"2015/11/12 12:48:52","4","-0.366","9.706","109499","139.933232","patrol01","37.518156","1447300302793","20151112_124852","-0.462"
"2015/11/12 12:48:52","4","-0.482","9.671","109500","139.933233","patrol01","37.518155","1447300302889","20151112_124852","-0.453"
"2015/11/12 12:48:52","3","-0.448","9.683","109501","139.933233","patrol01","37.518155","1447300302989","20151112_124852","-0.457"
"2015/11/12 12:48:52","3","-0.42","9.726","109502","139.933232","patrol01","37.518155","1447300303090","20151112_124852","-0.475"
"2015/11/12 12:48:52","3","-0.436","9.666","109503","139.933232","patrol01","37.518155","1447300303191","20151112_124852","-0.473"
"2015/11/12 12:48:52","3","-0.458","9.692","109504","139.933232","patrol01","37.518155","1447300303291","20151112_124852","-0.465"
"2015/11/12 12:48:52","3","-0.453","9.708","109505","139.933232","patrol01","37.518155","1447300303392","20151112_124852","-0.46"
"2015/11/12 12:48:52","3","-0.444","9.701","109506","139.933231","patrol01","37.518154","1447300303493","20151112_124852","-0.466"
"2015/11/12 12:48:52","3","-0.431","9.704","109507","139.933231","patrol01","37.518154","1447300303593","20151112_124852","-0.476"
"2015/11/12 12:48:52","3","-0.443","9.712","109508","139.933231","patrol01","37.518154","1447300303689","20151112_124852","-0.469"
"2015/11/12 12:48:52","3","-0.461","9.71","109509","139.93323","patrol01","37.518154","1447300303790","20151112_124852","-0.459"
"2015/11/12 12:48:52","3","-0.465","9.708","109510","139.93323","patrol01","37.518154","1447300303891","20151112_124852","-0.46"
"2015/11/12 12:48:52","3","-0.448","9.714","109511","139.93323","patrol01","37.518154","1447300303991","20151112_124852","-0.47"
"2015/11/12 12:48:52","3","-0.454","9.702","109512","139.93323","patrol01","37.518154","1447300304092","20151112_124852","-0.472"
"2015/11/12 12:48:52","3","-0.453","9.705","109513","139.933229","patrol01","37.518154","1447300304193","20151112_124852","-0.466"
"2015/11/12 12:48:52","3","-0.454","9.71","109514","139.933229","patrol01","37.518154","1447300304293","20151112_124852","-0.464"
"2015/11/12 12:48:52","3","-0.456","9.702","109515","139.933229","patrol01","37.518154","1447300304389","20151112_124852","-0.469"
"2015/11/12 12:48:52","3","-0.454","9.702","109516","139.933229","patrol01","37.518155","1447300304490","20151112_124852","-0.471"
"2015/11/12 12:48:52","3","-0.455","9.708","109517","139.933229","patrol01","37.518155","1447300304590","20151112_124852","-0.463"
"2015/11/12 12:48:52","3","-0.456","9.699","109518","139.933228","patrol01","37.518155","1447300304691","20151112_124852","-0.461"
"2015/11/12 12:48:52","3","-0.446","9.7","109519","139.933228","patrol01","37.518155","1447300304792","20151112_124852","-0.465"
"2015/11/12 12:48:52","3","-0.446","9.702","109520","139.933228","patrol01","37.518155","1447300304893","20151112_124852","-0.466"
"2015/11/12 12:48:52","3","-0.455","9.7","109521","139.933228","patrol01","37.518155","1447300304993","20151112_124852","-0.465"
"2015/11/12 12:48:52","3","-0.454","9.698","109522","139.933229","patrol01","37.518155","1447300305089","20151112_124852","-0.464"
"2015/11/12 12:48:52","3","-0.45","9.7","109523","139.933229","patrol01","37.518155","1447300305190","20151112_124852","-0.463"
"2015/11/12 12:48:52","3","-0.451","9.702","109524","139.933229","patrol01","37.518155","1447300305290","20151112_124852","-0.464"
"2015/11/12 12:48:52","3","-0.455","9.703","109525","139.933229","patrol01","37.518155","1447300305391","20151112_124852","-0.472"
"2015/11/12 12:48:52","3","-0.452","9.704","109526","139.93323","patrol01","37.518155","1447300305492","20151112_124852","-0.471"
"2015/11/12 12:48:52","3","-0.456","9.693","109527","139.93323","patrol01","37.518155","1447300305592","20151112_124852","-0.462"
"2015/11/12 12:48:52","3","-0.448","9.698","109528","139.93323","patrol01","37.518155","1447300305693","20151112_124852","-0.456"
"2015/11/12 12:48:52","3","-0.449","9.706","109529","139.933231","patrol01","37.518155","1447300305789","20151112_124852","-0.462"
"2015/11/12 12:48:52","3","-0.463","9.706","109530","139.933231","patrol01","37.518155","1447300305890","20151112_124852","-0.472"
"2015/11/12 12:48:52","3","-0.461","9.706","109531","139.933232","patrol01","37.518155","1447300305990","20151112_124852","-0.469"
"2015/11/12 12:48:52","3","-0.447","9.696","109532","139.933232","patrol01","37.518154","1447300306091","20151112_124852","-0.46"
"2015/11/12 12:48:52","3","-0.452","9.7","109533","139.933233","patrol01","37.518154","1447300306192","20151112_124852","-0.46"
"2015/11/12 12:48:52","3","-0.459","9.71","109534","139.933233","patrol01","37.518153","1447300306292","20151112_124852","-0.47"
"2015/11/12 12:48:52","3","-0.456","9.705","109535","139.933234","patrol01","37.518153","1447300306393","20151112_124852","-0.48"
"2015/11/12 12:48:52","3","-0.454","9.702","109536","139.933234","patrol01","37.518153","1447300306489","20151112_124852","-0.48"
"2015/11/12 12:48:52","3","-0.442","9.704","109537","139.933235","patrol01","37.518152","1447300306590","20151112_124852","-0.469"
"2015/11/12 12:48:52","3","-0.45","9.702","109538","139.933236","patrol01","37.518152","1447300306690","20151112_124852","-0.457"
"2015/11/12 12:48:52","3","-0.464","9.698","109539","139.933236","patrol01","37.518151","1447300306791","20151112_124852","-0.451"
"2015/11/12 12:48:52","3","-0.452","9.701","109540","139.933237","patrol01","37.518151","1447300306892","20151112_124852","-0.466"
"2015/11/12 12:48:52","3","-0.447","9.707","109541","139.933237","patrol01","37.518151","1447300306992","20151112_124852","-0.481"
"2015/11/12 12:48:52","3","-0.456","9.704","109542","139.933237","patrol01","37.518151","1447300307093","20151112_124852","-0.477"
"2015/11/12 12:48:52","3","-0.461","9.703","109543","139.933236","patrol01","37.51815","1447300307189","20151112_124852","-0.467"
"2015/11/12 12:48:52","3","-0.442","9.697","109544","139.933236","patrol01","37.51815","1447300307294","20151112_124852","-0.454"
"2015/11/12 12:48:52","3","-0.453","9.701","109545","139.933236","patrol01","37.51815","1447300307390","20151112_124852","-0.466"
"2015/11/12 12:48:52","3","-0.453","9.7","109546","139.933236","patrol01","37.51815","1447300307489","20151112_124852","-0.477"
"2015/11/12 12:48:52","3","-0.463","9.702","109547","139.933236","patrol01","37.51815","1447300307592","20151112_124852","-0.469"
"2015/11/12 12:48:52","3","-0.45","9.695","109548","139.933235","patrol01","37.518149","1447300307691","20151112_124852","-0.459"
"2015/11/12 12:48:52","3","-0.451","9.701","109549","139.933235","patrol01","37.518149","1447300307793","20151112_124852","-0.462"
"2015/11/12 12:48:52","3","-0.451","9.705","109550","139.933235","patrol01","37.518149","1447300307889","20151112_124852","-0.47"
"2015/11/12 12:48:52","3","-0.457","9.701","109551","139.933235","patrol01","37.518149","1447300307989","20151112_124852","-0.469"
"2015/11/12 12:48:52","3","-0.454","9.705","109552","139.933235","patrol01","37.518149","1447300308090","20151112_124852","-0.464"
"2015/11/12 12:48:52","3","-0.449","9.695","109553","139.933235","patrol01","37.518149","1447300308191","20151112_124852","-0.462"
"2015/11/12 12:48:52","3","-0.454","9.696","109554","139.933235","patrol01","37.518149","1447300308291","20151112_124852","-0.47"
"2015/11/12 12:48:52","3","-0.459","9.703","109555","139.933235","patrol01","37.518149","1447300308392","20151112_124852","-0.474"
"2015/11/12 12:48:52","3","-0.459","9.695","109556","139.933235","patrol01","37.518148","1447300308493","20151112_124852","-0.467"
"2015/11/12 12:48:52","3","-0.451","9.7","109557","139.933235","patrol01","37.518148","1447300308589","20151112_124852","-0.465"
"2015/11/12 12:48:52","3","-0.451","9.699","109558","139.933235","patrol01","37.518148","1447300308689","20151112_124852","-0.476"
"2015/11/12 12:48:52","3","-0.454","9.696","109559","139.933235","patrol01","37.518148","1447300308790","20151112_124852","-0.472"
"2015/11/12 12:48:52","3","-0.449","9.696","109560","139.933235","patrol01","37.518148","1447300308891","20151112_124852","-0.459"
"2015/11/12 12:48:52","3","-0.453","9.7","109561","139.933234","patrol01","37.518148","1447300308991","20151112_124852","-0.462"
"2015/11/12 12:48:52","3","-0.451","9.695","109562","139.933234","patrol01","37.518148","1447300309092","20151112_124852","-0.471"
"2015/11/12 12:48:52","3","-0.455","9.703","109563","139.933233","patrol01","37.518148","1447300309193","20151112_124852","-0.473"
"2015/11/12 12:48:52","3","-0.457","9.704","109564","139.933232","patrol01","37.518148","1447300309294","20151112_124852","-0.465"
"2015/11/12 12:48:52","3","-0.447","9.696","109565","139.933232","patrol01","37.518148","1447300309389","20151112_124852","-0.461"
"2015/11/12 12:48:52","3","-0.453","9.702","109566","139.933231","patrol01","37.518148","1447300309490","20151112_124852","-0.464"
"2015/11/12 12:48:52","3","-0.452","9.698","109567","139.93323","patrol01","37.518148","1447300309591","20151112_124852","-0.466"
"2015/11/12 12:48:52","3","-0.456","9.697","109568","139.93323","patrol01","37.518148","1447300309691","20151112_124852","-0.463"
"2015/11/12 12:48:52","3","-0.458","9.704","109569","139.933229","patrol01","37.518148","1447300309792","20151112_124852","-0.471"
"2015/11/12 12:48:52","3","-0.453","9.696","109570","139.933228","patrol01","37.518148","1447300309893","20151112_124852","-0.47"
"2015/11/12 12:48:52","3","-0.44","9.704","109571","139.933228","patrol01","37.518148","1447300309994","20151112_124852","-0.461"
"2015/11/12 12:48:52","3","-0.452","9.697","109572","139.933228","patrol01","37.518148","1447300310089","20151112_124852","-0.462"
"2015/11/12 12:48:52","3","-0.458","9.701","109573","139.933228","patrol01","37.518148","1447300310190","20151112_124852","-0.469"
"2015/11/12 12:48:52","3","-0.451","9.7","109574","139.933228","patrol01","37.518148","1447300310291","20151112_124852","-0.475"
"2015/11/12 12:48:52","3","-0.457","9.697","109575","139.933228","patrol01","37.518148","1447300310391","20151112_124852","-0.466"
"2015/11/12 12:48:52","3","-0.461","9.7","109576","139.933228","patrol01","37.518148","1447300310492","20151112_124852","-0.464"
"2015/11/12 12:48:52","3","-0.457","9.698","109577","139.933228","patrol01","37.518148","1447300310593","20151112_124852","-0.467"
"2015/11/12 12:48:52","3","-0.457","9.701","109578","139.933228","patrol01","37.518148","1447300310693","20151112_124852","-0.471"
"2015/11/12 12:48:52","3","-0.453","9.697","109579","139.933228","patrol01","37.518148","1447300310789","20151112_124852","-0.465"
"2015/11/12 12:48:52","3","-0.452","9.7","109580","139.933228","patrol01","37.518148","1447300310890","20151112_124852","-0.464"
"2015/11/12 12:48:52","3","-0.455","9.698","109581","139.933228","patrol01","37.518148","1447300310990","20151112_124852","-0.467"
"2015/11/12 12:48:52","3","-0.451","9.7","109582","139.933228","patrol01","37.518148","1447300311091","20151112_124852","-0.464"
"2015/11/12 12:48:52","3","-0.45","9.704","109583","139.933229","patrol01","37.518147","1447300311192","20151112_124852","-0.468"
"2015/11/12 12:48:52","3","-0.454","9.696","109584","139.933229","patrol01","37.518147","1447300311293","20151112_124852","-0.466"
"2015/11/12 12:48:52","3","-0.458","9.699","109585","139.933229","patrol01","37.518147","1447300311393","20151112_124852","-0.463"
"2015/11/12 12:48:52","3","-0.449","9.702","109586","139.933229","patrol01","37.518147","1447300311489","20151112_124852","-0.469"
"2015/11/12 12:48:52","3","-0.443","9.699","109587","139.933229","patrol01","37.518147","1447300311590","20151112_124852","-0.476"
"2015/11/12 12:48:52","3","-0.456","9.707","109588","139.93323","patrol01","37.518146","1447300311690","20151112_124852","-0.468"
"2015/11/12 12:48:52","3","-0.458","9.7","109589","139.93323","patrol01","37.518146","1447300311791","20151112_124852","-0.46"
"2015/11/12 12:48:52","3","-0.451","9.699","109590","139.93323","patrol01","37.518146","1447300311892","20151112_124852","-0.464"
"2015/11/12 12:48:52","3","-0.452","9.702","109591","139.93323","patrol01","37.518146","1447300311993","20151112_124852","-0.469"
"2015/11/12 12:48:52","3","-0.449","9.697","109592","139.93323","patrol01","37.518146","1447300312093","20151112_124852","-0.459"
"2015/11/12 12:48:52","3","-0.451","9.699","109593","139.933229","patrol01","37.518146","1447300312189","20151112_124852","-0.458"
"2015/11/12 12:48:52","3","-0.45","9.7","109594","139.933229","patrol01","37.518146","1447300312290","20151112_124852","-0.465"
"2015/11/12 12:48:52","3","-0.457","9.7","109595","139.933229","patrol01","37.518146","1447300312390","20151112_124852","-0.474"
"2015/11/12 12:48:52","3","-0.453","9.702","109596","139.933229","patrol01","37.518146","1447300312491","20151112_124852","-0.469"
"2015/11/12 12:48:52","3","-0.453","9.7","109597","139.933229","patrol01","37.518146","1447300312592","20151112_124852","-0.461"
"2015/11/12 12:48:52","3","-0.452","9.701","109598","139.933228","patrol01","37.518146","1447300312692","20151112_124852","-0.466"
"2015/11/12 12:48:52","3","-0.453","9.7","109599","139.933228","patrol01","37.518146","1447300312793","20151112_124852","-0.474"
"2015/11/12 12:48:52","3","-0.454","9.7","109600","139.933228","patrol01","37.518146","1447300312889","20151112_124852","-0.469"
"2015/11/12 12:48:52","3","-0.454","9.702","109601","139.933228","patrol01","37.518146","1447300312989","20151112_124852","-0.463"
"2015/11/12 12:48:52","3","-0.453","9.704","109602","139.933228","patrol01","37.518146","1447300313090","20151112_124852","-0.464"
"2015/11/12 12:48:52","3","-0.45","9.7","109603","139.933228","patrol01","37.518146","1447300313191","20151112_124852","-0.471"
"2015/11/12 12:48:52","3","-0.453","9.702","109604","139.933228","patrol01","37.518146","1447300313292","20151112_124852","-0.469"
"2015/11/12 12:48:52","3","-0.454","9.7","109605","139.933228","patrol01","37.518146","1447300313392","20151112_124852","-0.461"
"2015/11/12 12:48:52","3","-0.452","9.698","109606","139.933228","patrol01","37.518146","1447300313493","20151112_124852","-0.462"
"2015/11/12 12:48:52","3","-0.455","9.698","109607","139.933228","patrol01","37.518146","1447300313589","20151112_124852","-0.469"
"2015/11/12 12:48:52","3","-0.458","9.694","109608","139.933228","patrol01","37.518146","1447300313689","20151112_124852","-0.47"
"2015/11/12 12:48:52","3","-0.458","9.696","109609","139.933228","patrol01","37.518146","1447300313790","20151112_124852","-0.465"
"2015/11/12 12:48:52","3","-0.452","9.7","109610","139.933228","patrol01","37.518146","1447300313891","20151112_124852","-0.468"
"2015/11/12 12:48:52","3","-0.451","9.698","109611","139.933228","patrol01","37.518146","1447300313992","20151112_124852","-0.47"
"2015/11/12 12:48:52","3","-0.455","9.704","109612","139.933228","patrol01","37.518146","1447300314092","20151112_124852","-0.469"
"2015/11/12 12:48:52","3","-0.458","9.701","109613","139.933228","patrol01","37.518146","1447300314193","20151112_124852","-0.466"
"2015/11/12 12:48:52","3","-0.456","9.7","109614","139.933228","patrol01","37.518146","1447300314289","20151112_124852","-0.47"
"2015/11/12 12:48:52","3","-0.456","9.7","109615","139.933228","patrol01","37.518146","1447300314389","20151112_124852","-0.468"
"2015/11/12 12:48:52","3","-0.456","9.7","109616","139.933228","patrol01","37.518146","1447300314490","20151112_124852","-0.467"
"2015/11/12 12:48:52","3","-0.459","9.7","109617","139.933228","patrol01","37.518146","1447300314591","20151112_124852","-0.467"
"2015/11/12 12:48:52","3","-0.457","9.702","109618","139.933228","patrol01","37.518146","1447300314691","20151112_124852","-0.474"
"2015/11/12 12:48:52","3","-0.453","9.701","109619","139.933228","patrol01","37.518146","1447300314792","20151112_124852","-0.467"
"2015/11/12 12:48:52","3","-0.45","9.703","109620","139.933228","patrol01","37.518146","1447300314893","20151112_124852","-0.468"
"2015/11/12 12:48:52","3","-0.456","9.702","109621","139.933228","patrol01","37.518146","1447300314989","20151112_124852","-0.469"
"2015/11/12 12:48:52","3","-0.457","9.7","109622","139.933228","patrol01","37.518146","1447300315089","20151112_124852","-0.465"
"2015/11/12 12:48:52","3","-0.454","9.702","109623","139.933228","patrol01","37.518146","1447300315190","20151112_124852","-0.469"
"2015/11/12 12:48:52","3","-0.448","9.704","109624","139.933228","patrol01","37.518146","1447300315291","20151112_124852","-0.472"
"2015/11/12 12:48:52","3","-0.455","9.703","109625","139.933228","patrol01","37.518146","1447300315391","20151112_124852","-0.469"
"2015/11/12 12:48:52","3","-0.456","9.701","109626","139.933229","patrol01","37.518146","1447300315492","20151112_124852","-0.465"
"2015/11/12 12:48:52","3","-0.454","9.698","109627","139.933229","patrol01","37.518146","1447300315593","20151112_124852","-0.464"
"2015/11/12 12:48:52","3","-0.453","9.699","109628","139.933229","patrol01","37.518146","1447300315694","20151112_124852","-0.466"
"2015/11/12 12:48:52","3","-0.454","9.7","109629","139.933229","patrol01","37.518146","1447300315789","20151112_124852","-0.469"
"2015/11/12 12:48:52","3","-0.454","9.698","109630","139.933229","patrol01","37.518146","1447300315890","20151112_124852","-0.466"
"2015/11/12 12:48:52","3","-0.45","9.702","109631","139.933229","patrol01","37.518146","1447300315991","20151112_124852","-0.466"
"2015/11/12 12:48:52","3","-0.45","9.697","109632","139.933229","patrol01","37.518146","1447300316091","20151112_124852","-0.465"
"2015/11/12 12:48:52","3","-0.452","9.701","109633","139.933229","patrol01","37.518146","1447300316192","20151112_124852","-0.469"
"2015/11/12 12:48:52","3","-0.454","9.703","109634","139.933229","patrol01","37.518146","1447300316293","20151112_124852","-0.468"
"2015/11/12 12:48:52","3","-0.455","9.698","109635","139.933229","patrol01","37.518146","1447300316393","20151112_124852","-0.466"
"2015/11/12 12:48:52","3","-0.453","9.701","109636","139.933228","patrol01","37.518146","1447300316489","20151112_124852","-0.464"
"2015/11/12 12:48:52","3","-0.449","9.703","109637","139.933228","patrol01","37.518146","1447300316590","20151112_124852","-0.465"
"2015/11/12 12:48:52","3","-0.452","9.706","109638","139.933228","patrol01","37.518146","1447300316691","20151112_124852","-0.47"
