"measurement_datetime","gps_error_meter","accel_y_longitudinal","accel_z_vertical","oid","longitude","car_name","latitude","measurement_ms","measurement_data_id","accel_x_transverse"
"2015/10/27 08:34:59","24","-0.539","10.1","1974","139.936387","patrol02","37.523644","1445902542940","20151027_083459","0.063"
"2015/10/27 08:34:59","24","-0.568","10.074","1975","139.93639","patrol02","37.523633","1445902543040","20151027_083459","0.087"
"2015/10/27 08:34:59","24","-0.633","10.163","1976","139.936394","patrol02","37.523623","1445902543141","20151027_083459","0.117"
"2015/10/27 08:34:59","24","-0.595","10.249","1977","139.936397","patrol02","37.523613","1445902543242","20151027_083459","0.159"
"2015/10/27 08:34:59","24","-0.58","10.125","1978","139.9364","patrol02","37.523603","1445902543338","20151027_083459","0.111"
"2015/10/27 08:34:59","24","-0.516","10.084","1979","139.936403","patrol02","37.523593","1445902543438","20151027_083459","-0.084"
"2015/10/27 08:34:59","24","-0.513","10.098","1980","139.936406","patrol02","37.523582","1445902543539","20151027_083459","-0.227"
"2015/10/27 08:34:59","24","-0.595","10.1","1981","139.93641","patrol02","37.523572","1445902543640","20151027_083459","-0.202"
"2015/10/27 08:34:59","24","-0.595","10.227","1982","139.936413","patrol02","37.523561","1445902543740","20151027_083459","-0.119"
"2015/10/27 08:34:59","24","-0.544","10.178","1983","139.936416","patrol02","37.523551","1445902543841","20151027_083459","-0.129"
"2015/10/27 08:34:59","22","-0.489","10.118","1984","139.936422","patrol02","37.523542","1445902543942","20151027_083459","-0.247"
"2015/10/27 08:34:59","22","-0.57","9.958","1985","139.936428","patrol02","37.523533","1445902544038","20151027_083459","-0.335"
"2015/10/27 08:34:59","22","-0.59","9.927","1986","139.936435","patrol02","37.523524","1445902544138","20151027_083459","-0.37"
"2015/10/27 08:34:59","22","-0.574","10.04","1987","139.936442","patrol02","37.523514","1445902544239","20151027_083459","-0.149"
"2015/10/27 08:34:59","22","-0.623","10.091","1988","139.936448","patrol02","37.523505","1445902544340","20151027_083459","-0.023"
"2015/10/27 08:34:59","22","-0.582","10.179","1989","139.936455","patrol02","37.523496","1445902544440","20151027_083459","0.098"
"2015/10/27 08:34:59","22","-0.551","9.971","1990","139.936462","patrol02","37.523487","1445902544541","20151027_083459","0.058"
"2015/10/27 08:34:59","22","-0.549","9.754","1991","139.936469","patrol02","37.523478","1445902544642","20151027_083459","-0.023"
"2015/10/27 08:34:59","22","-0.484","9.946","1992","139.936476","patrol02","37.523468","1445902544742","20151027_083459","0.045"
"2015/10/27 08:34:59","22","-0.457","10.175","1993","139.936482","patrol02","37.52346","1445902544838","20151027_083459","0.132"
"2015/10/27 08:34:59","16","-0.54","10.014","1994","139.936488","patrol02","37.52345","1445902544939","20151027_083459","0.073"
"2015/10/27 08:34:59","16","-0.645","9.912","1995","139.936494","patrol02","37.523441","1445902545039","20151027_083459","-0.014"
"2015/10/27 08:34:59","16","-0.616","10.106","1996","139.936499","patrol02","37.523431","1445902545140","20151027_083459","-0.035"
"2015/10/27 08:34:59","16","-0.58","10.353","1997","139.936505","patrol02","37.523421","1445902545241","20151027_083459","0.024"
"2015/10/27 08:34:59","16","-0.602","10.307","1998","139.936511","patrol02","37.523412","1445902545342","20151027_083459","-0.013"
"2015/10/27 08:34:59","16","-0.666","9.971","1999","139.936517","patrol02","37.523402","1445902545442","20151027_083459","-0.187"
"2015/10/27 08:34:59","16","-0.661","9.957","2000","139.936522","patrol02","37.523393","1445902545538","20151027_083459","-0.224"
"2015/10/27 08:34:59","16","-0.605","10.112","2001","139.936528","patrol02","37.523383","1445902545639","20151027_083459","-0.195"
"2015/10/27 08:34:59","16","-0.634","10.078","2002","139.936534","patrol02","37.523374","1445902545739","20151027_083459","-0.127"
"2015/10/27 08:34:59","16","-0.578","9.891","2003","139.936539","patrol02","37.523364","1445902545840","20151027_083459","-0.308"
"2015/10/27 08:34:59","13","-0.503","10.152","2004","139.936544","patrol02","37.523354","1445902545941","20151027_083459","-0.197"
"2015/10/27 08:34:59","13","-0.543","10.191","2005","139.936548","patrol02","37.523344","1445902546042","20151027_083459","0.031"
"2015/10/27 08:34:59","13","-0.642","9.949","2006","139.936553","patrol02","37.523334","1445902546142","20151027_083459","-0.039"
"2015/10/27 08:34:59","13","-0.599","10.028","2007","139.936557","patrol02","37.523325","1445902546238","20151027_083459","0.076"
"2015/10/27 08:34:59","13","-0.604","10.048","2008","139.936561","patrol02","37.523315","1445902546339","20151027_083459","0.136"
"2015/10/27 08:34:59","13","-0.617","10.062","2009","139.936565","patrol02","37.523305","1445902546439","20151027_083459","0.128"
"2015/10/27 08:34:59","13","-0.582","10.189","2010","139.93657","patrol02","37.523295","1445902546540","20151027_083459","0.148"
"2015/10/27 08:34:59","13","-0.637","10.046","2011","139.936574","patrol02","37.523285","1445902546641","20151027_083459","0.133"
"2015/10/27 08:34:59","13","-0.593","10.094","2012","139.936578","patrol02","37.523275","1445902546742","20151027_083459","0.053"
"2015/10/27 08:34:59","13","-0.486","10.343","2013","139.936583","patrol02","37.523265","1445902546842","20151027_083459","0.147"
"2015/10/27 08:34:59","12","-0.616","10.117","2014","139.936588","patrol02","37.523256","1445902546938","20151027_083459","0.066"
"2015/10/27 08:34:59","12","-0.665","9.893","2015","139.936595","patrol02","37.523247","1445902547039","20151027_083459","-0.148"
"2015/10/27 08:34:59","12","-0.711","9.884","2016","139.936602","patrol02","37.523237","1445902547139","20151027_083459","-0.029"
"2015/10/27 08:34:59","12","-0.563","9.978","2017","139.936608","patrol02","37.523228","1445902547240","20151027_083459","0.057"
"2015/10/27 08:34:59","12","-0.414","10.209","2018","139.936615","patrol02","37.523219","1445902547341","20151027_083459","0.161"
"2015/10/27 08:34:59","12","-0.467","10.358","2019","139.936622","patrol02","37.52321","1445902547441","20151027_083459","0.133"
"2015/10/27 08:34:59","12","-0.612","10.313","2020","139.936628","patrol02","37.5232","1445902547542","20151027_083459","0.313"
"2015/10/27 08:34:59","12","-0.667","10.316","2021","139.936635","patrol02","37.523191","1445902547638","20151027_083459","0.491"
"2015/10/27 08:34:59","12","-0.591","9.991","2022","139.936641","patrol02","37.523182","1445902547738","20151027_083459","0.257"
"2015/10/27 08:34:59","12","-0.565","9.989","2023","139.936648","patrol02","37.523173","1445902547838","20151027_083459","0.267"
"2015/10/27 08:34:59","11","-0.571","10.192","2024","139.936654","patrol02","37.523163","1445902547939","20151027_083459","0.328"
"2015/10/27 08:34:59","11","-0.635","10.208","2025","139.93666","patrol02","37.523154","1445902548040","20151027_083459","0.334"
"2015/10/27 08:34:59","11","-0.611","10.147","2026","139.936665","patrol02","37.523144","1445902548140","20151027_083459","0.38"
"2015/10/27 08:34:59","11","-0.448","10.246","2027","139.936671","patrol02","37.523134","1445902548241","20151027_083459","0.336"
"2015/10/27 08:34:59","11","-0.296","10.15","2028","139.936677","patrol02","37.523125","1445902548342","20151027_083459","0.128"
"2015/10/27 08:34:59","11","-0.328","10.062","2029","139.936683","patrol02","37.523115","1445902548442","20151027_083459","0.089"
"2015/10/27 08:34:59","11","-0.329","10.015","2030","139.936688","patrol02","37.523106","1445902548538","20151027_083459","0.059"
"2015/10/27 08:34:59","11","-0.21","10.09","2031","139.936694","patrol02","37.523096","1445902548639","20151027_083459","0.151"
"2015/10/27 08:34:59","11","-0.081","10.015","2032","139.9367","patrol02","37.523087","1445902548740","20151027_083459","0.106"
"2015/10/27 08:34:59","11","0.081","10.04","2033","139.936705","patrol02","37.523077","1445902548840","20151027_083459","0.029"
"2015/10/27 08:34:59","10","0.133","9.997","2034","139.93671","patrol02","37.523067","1445902548941","20151027_083459","-0.163"
"2015/10/27 08:34:59","10","0.107","10.022","2035","139.936714","patrol02","37.523057","1445902549042","20151027_083459","-0.292"
"2015/10/27 08:34:59","10","0.069","9.985","2036","139.936719","patrol02","37.523048","1445902549142","20151027_083459","-0.286"
"2015/10/27 08:34:59","10","0.004","10.036","2037","139.936723","patrol02","37.523038","1445902549238","20151027_083459","-0.438"
"2015/10/27 08:34:59","10","0.104","10.209","2038","139.936727","patrol02","37.523029","1445902549339","20151027_083459","-0.449"
"2015/10/27 08:34:59","10","0.007","9.764","2039","139.936731","patrol02","37.523019","1445902549440","20151027_083459","-0.325"
"2015/10/27 08:34:59","10","0.145","10.174","2040","139.936736","patrol02","37.523009","1445902549540","20151027_083459","-0.414"
"2015/10/27 08:34:59","10","0.494","10.45","2041","139.93674","patrol02","37.522999","1445902549641","20151027_083459","-0.568"
"2015/10/27 08:34:59","10","0.125","10.176","2042","139.936744","patrol02","37.52299","1445902549742","20151027_083459","-0.823"
"2015/10/27 08:34:59","10","0.004","10.07","2043","139.936749","patrol02","37.52298","1445902549842","20151027_083459","-0.933"
"2015/10/27 08:34:59","8","0.036","10.036","2044","139.936752","patrol02","37.522971","1445902549938","20151027_083459","-1.103"
"2015/10/27 08:34:59","8","0.125","10.194","2045","139.936755","patrol02","37.522963","1445902550039","20151027_083459","-1.234"
"2015/10/27 08:34:59","8","0.156","10.142","2046","139.936759","patrol02","37.522954","1445902550139","20151027_083459","-1.329"
"2015/10/27 08:34:59","8","0.083","9.975","2047","139.936762","patrol02","37.522945","1445902550240","20151027_083459","-1.566"
"2015/10/27 08:34:59","8","0.141","10.067","2048","139.936765","patrol02","37.522937","1445902550341","20151027_083459","-1.715"
"2015/10/27 08:34:59","8","0.1","10.231","2049","139.936768","patrol02","37.522928","1445902550442","20151027_083459","-1.705"
"2015/10/27 08:34:59","8","-0.028","10.196","2050","139.936771","patrol02","37.522919","1445902550542","20151027_083459","-1.834"
"2015/10/27 08:34:59","8","-0.126","10.211","2051","139.936775","patrol02","37.522911","1445902550638","20151027_083459","-1.881"
"2015/10/27 08:34:59","8","-0.193","10.005","2052","139.936778","patrol02","37.522902","1445902550739","20151027_083459","-1.936"
"2015/10/27 08:34:59","8","-0.227","9.813","2053","139.936781","patrol02","37.522894","1445902550839","20151027_083459","-2.09"
"2015/10/27 08:34:59","7","-0.207","9.917","2054","139.936783","patrol02","37.522884","1445902550940","20151027_083459","-2.145"
"2015/10/27 08:34:59","7","-0.171","10.002","2055","139.936784","patrol02","37.522874","1445902551041","20151027_083459","-2.12"
"2015/10/27 08:34:59","7","-0.179","9.952","2056","139.936786","patrol02","37.522864","1445902551141","20151027_083459","-2.175"
"2015/10/27 08:34:59","7","-0.179","10.115","2057","139.936787","patrol02","37.522854","1445902551242","20151027_083459","-2.09"
"2015/10/27 08:34:59","7","-0.161","10.268","2058","139.936789","patrol02","37.522844","1445902551338","20151027_083459","-2.071"
"2015/10/27 08:34:59","7","-0.28","10.062","2059","139.93679","patrol02","37.522834","1445902551438","20151027_083459","-1.992"
"2015/10/27 08:34:59","7","-0.359","9.962","2060","139.936791","patrol02","37.522824","1445902551539","20151027_083459","-2.008"
"2015/10/27 08:34:59","7","-0.374","9.859","2061","139.936793","patrol02","37.522814","1445902551640","20151027_083459","-2.023"
"2015/10/27 08:34:59","7","-0.416","9.776","2062","139.936794","patrol02","37.522804","1445902551741","20151027_083459","-2.092"
"2015/10/27 08:34:59","7","-0.36","9.766","2063","139.936796","patrol02","37.522794","1445902551841","20151027_083459","-2.041"
"2015/10/27 08:34:59","10","-0.273","9.993","2064","139.936796","patrol02","37.522785","1445902551942","20151027_083459","-1.955"
"2015/10/27 08:34:59","10","-0.298","10.017","2065","139.936795","patrol02","37.522776","1445902552038","20151027_083459","-1.68"
"2015/10/27 08:34:59","10","-0.309","10.053","2066","139.936794","patrol02","37.522767","1445902552138","20151027_083459","-1.507"
"2015/10/27 08:34:59","10","-0.345","10.117","2067","139.936794","patrol02","37.522758","1445902552239","20151027_083459","-1.565"
"2015/10/27 08:34:59","10","-0.433","10.221","2068","139.936793","patrol02","37.522749","1445902552340","20151027_083459","-1.363"
"2015/10/27 08:34:59","10","-0.492","10.048","2069","139.936793","patrol02","37.52274","1445902552441","20151027_083459","-1.308"
"2015/10/27 08:34:59","10","-0.514","10.033","2070","139.936792","patrol02","37.522731","1445902552541","20151027_083459","-1.29"
"2015/10/27 08:34:59","10","-0.513","9.992","2071","139.936791","patrol02","37.522721","1445902552642","20151027_083459","-1.204"
"2015/10/27 08:34:59","10","-0.463","10.056","2072","139.936791","patrol02","37.522713","1445902552738","20151027_083459","-1.161"
"2015/10/27 08:34:59","10","-0.484","10.063","2073","139.93679","patrol02","37.522704","1445902552838","20151027_083459","-1.042"
"2015/10/27 08:34:59","10","-0.541","10.006","2074","139.936789","patrol02","37.522695","1445902552939","20151027_083459","-0.851"
"2015/10/27 08:34:59","10","-0.58","10.002","2075","139.936788","patrol02","37.522685","1445902553040","20151027_083459","-0.765"
"2015/10/27 08:34:59","10","-0.606","10.149","2076","139.936787","patrol02","37.522676","1445902553140","20151027_083459","-0.683"
"2015/10/27 08:34:59","10","-0.565","10.032","2077","139.936786","patrol02","37.522667","1445902553241","20151027_083459","-0.658"
"2015/10/27 08:34:59","10","-0.593","10.094","2078","139.936784","patrol02","37.522658","1445902553342","20151027_083459","-0.516"
"2015/10/27 08:34:59","10","-0.657","10.178","2079","139.936783","patrol02","37.522649","1445902553438","20151027_083459","-0.423"
"2015/10/27 08:34:59","10","-0.616","10.219","2080","139.936782","patrol02","37.52264","1445902553538","20151027_083459","-0.369"
"2015/10/27 08:34:59","10","-0.585","10.237","2081","139.936781","patrol02","37.52263","1445902553639","20151027_083459","-0.293"
"2015/10/27 08:34:59","10","-0.534","10.186","2082","139.93678","patrol02","37.522621","1445902553740","20151027_083459","-0.254"
"2015/10/27 08:34:59","10","-0.709","10.049","2083","139.936778","patrol02","37.522612","1445902553840","20151027_083459","-0.168"
"2015/10/27 08:34:59","10","-0.832","10.075","2084","139.936776","patrol02","37.522601","1445902553941","20151027_083459","-0.002"
"2015/10/27 08:34:59","10","-0.699","10.118","2085","139.936773","patrol02","37.52259","1445902554042","20151027_083459","-0.044"
"2015/10/27 08:34:59","10","-0.718","10.22","2086","139.936771","patrol02","37.522579","1445902554138","20151027_083459","0.107"
"2015/10/27 08:34:59","10","-0.752","10.156","2087","139.936768","patrol02","37.522568","1445902554238","20151027_083459","0.057"
"2015/10/27 08:34:59","10","-0.789","10.084","2088","139.936765","patrol02","37.522557","1445902554339","20151027_083459","-0.046"
"2015/10/27 08:34:59","10","-0.802","9.852","2089","139.936763","patrol02","37.522546","1445902554440","20151027_083459","-0.121"
"2015/10/27 08:34:59","10","-0.739","9.943","2090","139.93676","patrol02","37.522534","1445902554540","20151027_083459","-0.166"
"2015/10/27 08:34:59","10","-0.706","10.128","2091","139.936757","patrol02","37.522523","1445902554641","20151027_083459","-0.028"
"2015/10/27 08:34:59","10","-0.771","10.015","2092","139.936754","patrol02","37.522512","1445902554742","20151027_083459","-0.06"
"2015/10/27 08:34:59","10","-0.767","10.094","2093","139.936752","patrol02","37.522501","1445902554842","20151027_083459","-0.03"
"2015/10/27 08:34:59","8","-0.716","10.302","2094","139.93675","patrol02","37.522491","1445902554938","20151027_083459","0.021"
"2015/10/27 08:34:59","8","-0.692","10.084","2095","139.936749","patrol02","37.522482","1445902555039","20151027_083459","0.007"
"2015/10/27 08:34:59","8","-0.504","9.963","2096","139.936747","patrol02","37.522472","1445902555140","20151027_083459","-0.135"
"2015/10/27 08:34:59","8","-0.339","10.033","2097","139.936746","patrol02","37.522463","1445902555240","20151027_083459","-0.143"
"2015/10/27 08:34:59","8","-0.197","10.094","2098","139.936744","patrol02","37.522454","1445902555341","20151027_083459","-0.098"
"2015/10/27 08:34:59","8","-0.085","10.093","2099","139.936743","patrol02","37.522444","1445902555442","20151027_083459","-0.028"
"2015/10/27 08:34:59","8","-0.121","10.039","2100","139.936742","patrol02","37.522435","1445902555542","20151027_083459","0.001"
"2015/10/27 08:34:59","8","-0.086","10.079","2101","139.93674","patrol02","37.522426","1445902555638","20151027_083459","0.029"
"2015/10/27 08:34:59","8","0.053","10.13","2102","139.936739","patrol02","37.522416","1445902555739","20151027_083459","-0.005"
"2015/10/27 08:34:59","8","0.005","9.979","2103","139.936737","patrol02","37.522407","1445902555840","20151027_083459","0.034"
"2015/10/27 08:34:59","9","0.084","10.347","2104","139.936736","patrol02","37.522397","1445902555940","20151027_083459","-0.002"
"2015/10/27 08:34:59","9","0.238","10.688","2105","139.936735","patrol02","37.522387","1445902556041","20151027_083459","-0.099"
"2015/10/27 08:34:59","9","0.043","10.341","2106","139.936734","patrol02","37.522377","1445902556142","20151027_083459","0.002"
"2015/10/27 08:34:59","9","-0.084","10.096","2107","139.936733","patrol02","37.522366","1445902556242","20151027_083459","-0.052"
"2015/10/27 08:34:59","9","0.037","10.104","2108","139.936732","patrol02","37.522357","1445902556338","20151027_083459","-0.026"
"2015/10/27 08:34:59","9","0.136","10.174","2109","139.936731","patrol02","37.522347","1445902556439","20151027_083459","0.04"
"2015/10/27 08:34:59","9","0.163","9.969","2110","139.93673","patrol02","37.522337","1445902556539","20151027_083459","0.184"
"2015/10/27 08:34:59","9","0.201","9.893","2111","139.936729","patrol02","37.522326","1445902556641","20151027_083459","0.025"
"2015/10/27 08:34:59","9","0.379","9.984","2112","139.936728","patrol02","37.522316","1445902556741","20151027_083459","-0.003"
"2015/10/27 08:34:59","9","0.474","10.021","2113","139.936727","patrol02","37.522306","1445902556842","20151027_083459","-0.085"
"2015/10/27 08:34:59","7","0.453","9.818","2114","139.936726","patrol02","37.522297","1445902556942","20151027_083459","-0.178"
"2015/10/27 08:34:59","7","0.473","9.822","2115","139.936724","patrol02","37.522288","1445902557038","20151027_083459","-0.234"
"2015/10/27 08:34:59","7","0.747","9.969","2116","139.936722","patrol02","37.522279","1445902557139","20151027_083459","-0.191"
"2015/10/27 08:34:59","7","1.178","10.261","2117","139.93672","patrol02","37.522271","1445902557239","20151027_083459","-0.246"
"2015/10/27 08:34:59","7","1.395","10.452","2118","139.936718","patrol02","37.522262","1445902557340","20151027_083459","-0.211"
"2015/10/27 08:34:59","7","1.299","10.411","2119","139.936716","patrol02","37.522253","1445902557441","20151027_083459","-0.106"
"2015/10/27 08:34:59","7","1.24","10.356","2120","139.936714","patrol02","37.522244","1445902557541","20151027_083459","0.062"
"2015/10/27 08:34:59","7","1.196","10.139","2121","139.936712","patrol02","37.522235","1445902557642","20151027_083459","-0.048"
"2015/10/27 08:34:59","7","1.217","10.15","2122","139.93671","patrol02","37.522227","1445902557738","20151027_083459","0.21"
"2015/10/27 08:34:59","7","1.145","9.934","2123","139.936708","patrol02","37.522218","1445902557839","20151027_083459","0.392"
"2015/10/27 08:34:59","6","1.15","9.984","2124","139.936707","patrol02","37.52221","1445902557939","20151027_083459","0.496"
"2015/10/27 08:34:59","6","1.297","10.139","2125","139.936708","patrol02","37.522203","1445902558040","20151027_083459","0.434"
"2015/10/27 08:34:59","6","1.321","10.244","2126","139.936709","patrol02","37.522196","1445902558141","20151027_083459","0.405"
"2015/10/27 08:34:59","6","1.152","10.251","2127","139.93671","patrol02","37.522189","1445902558241","20151027_083459","0.37"
"2015/10/27 08:34:59","6","0.97","10.058","2128","139.93671","patrol02","37.522182","1445902558342","20151027_083459","0.555"
"2015/10/27 08:34:59","6","0.934","9.893","2129","139.936711","patrol02","37.522176","1445902558438","20151027_083459","0.578"
"2015/10/27 08:34:59","6","0.956","9.892","2130","139.936712","patrol02","37.522169","1445902558538","20151027_083459","0.75"
"2015/10/27 08:34:59","6","0.991","10.169","2131","139.936712","patrol02","37.522162","1445902558639","20151027_083459","0.989"
"2015/10/27 08:34:59","6","1.017","10.191","2132","139.936713","patrol02","37.522155","1445902558740","20151027_083459","1.204"
"2015/10/27 08:34:59","6","0.931","9.914","2133","139.936714","patrol02","37.522148","1445902558841","20151027_083459","1.354"
"2015/10/27 08:34:59","9","0.864","9.896","2134","139.936715","patrol02","37.522142","1445902558941","20151027_083459","1.626"
"2015/10/27 08:34:59","9","1.026","10.075","2135","139.936718","patrol02","37.522136","1445902559042","20151027_083459","1.553"
"2015/10/27 08:34:59","9","0.995","9.916","2136","139.93672","patrol02","37.522131","1445902559138","20151027_083459","1.55"
"2015/10/27 08:34:59","9","1.229","10.159","2137","139.936722","patrol02","37.522125","1445902559238","20151027_083459","1.872"
"2015/10/27 08:34:59","9","1.407","10.25","2138","139.936724","patrol02","37.522119","1445902559339","20151027_083459","2.1"
"2015/10/27 08:34:59","9","1.683","10.013","2139","139.936726","patrol02","37.522113","1445902559440","20151027_083459","2.271"
"2015/10/27 08:34:59","9","1.808","9.979","2140","139.936728","patrol02","37.522108","1445902559541","20151027_083459","2.496"
"2015/10/27 08:34:59","9","1.822","10.049","2141","139.93673","patrol02","37.522102","1445902559641","20151027_083459","2.657"
"2015/10/27 08:34:59","9","1.926","10.173","2142","139.936732","patrol02","37.522096","1445902559742","20151027_083459","2.705"
"2015/10/27 08:34:59","9","1.896","10.113","2143","139.936734","patrol02","37.522091","1445902559838","20151027_083459","2.668"
"2015/10/27 08:34:59","6","1.657","10.066","2144","139.936739","patrol02","37.522087","1445902559938","20151027_083459","2.626"
"2015/10/27 08:34:59","6","1.223","10.079","2145","139.936745","patrol02","37.522083","1445902560039","20151027_083459","2.69"
"2015/10/27 08:34:59","6","0.925","10.139","2146","139.936751","patrol02","37.52208","1445902560140","20151027_083459","2.597"
"2015/10/27 08:34:59","6","0.804","10.153","2147","139.936757","patrol02","37.522076","1445902560240","20151027_083459","2.873"
"2015/10/27 08:34:59","6","0.841","9.917","2148","139.936763","patrol02","37.522072","1445902560341","20151027_083459","3.009"
"2015/10/27 08:34:59","6","0.982","9.861","2149","139.936769","patrol02","37.522069","1445902560442","20151027_083459","3.252"
"2015/10/27 08:34:59","6","1.132","10.077","2150","139.936774","patrol02","37.522066","1445902560538","20151027_083459","3.328"
"2015/10/27 08:34:59","6","1.163","10.145","2151","139.93678","patrol02","37.522062","1445902560638","20151027_083459","3.192"
"2015/10/27 08:34:59","6","1.076","10.059","2152","139.936786","patrol02","37.522059","1445902560739","20151027_083459","3.007"
"2015/10/27 08:34:59","6","0.877","10.059","2153","139.936792","patrol02","37.522055","1445902560840","20151027_083459","2.901"
"2015/10/27 08:34:59","6","0.639","10.05","2154","139.936798","patrol02","37.522053","1445902560940","20151027_083459","2.91"
"2015/10/27 08:34:59","6","0.532","9.999","2155","139.936804","patrol02","37.522051","1445902561041","20151027_083459","2.853"
"2015/10/27 08:34:59","6","0.481","10.035","2156","139.936811","patrol02","37.522049","1445902561142","20151027_083459","2.826"
"2015/10/27 08:34:59","6","0.424","10.071","2157","139.936817","patrol02","37.522047","1445902561243","20151027_083459","2.829"
"2015/10/27 08:34:59","6","0.446","10.016","2158","139.936823","patrol02","37.522045","1445902561338","20151027_083459","2.688"
"2015/10/27 08:34:59","6","0.395","10.023","2159","139.936829","patrol02","37.522043","1445902561439","20151027_083459","2.57"
"2015/10/27 08:34:59","6","0.332","10.102","2160","139.936835","patrol02","37.522041","1445902561540","20151027_083459","2.574"
"2015/10/27 08:34:59","6","0.281","10.263","2161","139.936841","patrol02","37.522039","1445902561640","20151027_083459","2.43"
"2015/10/27 08:34:59","6","0.121","10.237","2162","139.936847","patrol02","37.522037","1445902561741","20151027_083459","2.255"
"2015/10/27 08:34:59","6","-0.059","10.192","2163","139.936853","patrol02","37.522036","1445902561842","20151027_083459","1.99"
"2015/10/27 08:34:59","6","-0.161","9.992","2164","139.936859","patrol02","37.522034","1445902561942","20151027_083459","1.685"
"2015/10/27 08:34:59","6","-0.227","9.996","2165","139.936864","patrol02","37.522032","1445902562038","20151027_083459","1.456"
"2015/10/27 08:34:59","6","-0.268","10.2","2166","139.93687","patrol02","37.52203","1445902562139","20151027_083459","1.207"
"2015/10/27 08:34:59","6","-0.322","10.222","2167","139.936876","patrol02","37.522028","1445902562239","20151027_083459","1.144"
"2015/10/27 08:34:59","6","-0.4","10.218","2168","139.936881","patrol02","37.522026","1445902562340","20151027_083459","1.049"
"2015/10/27 08:34:59","6","-0.444","10.096","2169","139.936887","patrol02","37.522024","1445902562441","20151027_083459","0.999"
"2015/10/27 08:34:59","6","-0.485","10.053","2170","139.936893","patrol02","37.522022","1445902562542","20151027_083459","1.02"
"2015/10/27 08:34:59","6","-0.452","10.27","2171","139.936898","patrol02","37.52202","1445902562642","20151027_083459","0.926"
"2015/10/27 08:34:59","6","-0.419","10.306","2172","139.936904","patrol02","37.522018","1445902562738","20151027_083459","0.77"
"2015/10/27 08:34:59","6","-0.369","10.322","2173","139.936909","patrol02","37.522016","1445902562839","20151027_083459","0.829"
"2015/10/27 08:34:59","6","-0.548","10.04","2174","139.936914","patrol02","37.522015","1445902562939","20151027_083459","0.512"
"2015/10/27 08:34:59","6","-0.618","9.826","2175","139.936917","patrol02","37.522014","1445902563040","20151027_083459","0.419"
"2015/10/27 08:34:59","6","-0.641","10.198","2176","139.936921","patrol02","37.522013","1445902563141","20151027_083459","0.535"
"2015/10/27 08:34:59","6","-0.622","10.274","2177","139.936925","patrol02","37.522012","1445902563242","20151027_083459","0.564"
"2015/10/27 08:34:59","6","-0.45","10.032","2178","139.936928","patrol02","37.522012","1445902563342","20151027_083459","0.526"
"2015/10/27 08:34:59","6","-0.442","10.199","2179","139.936932","patrol02","37.522011","1445902563438","20151027_083459","0.507"
"2015/10/27 08:34:59","6","-0.64","10.105","2180","139.936936","patrol02","37.52201","1445902563539","20151027_083459","0.532"
"2015/10/27 08:34:59","6","-0.832","10.09","2181","139.936939","patrol02","37.52201","1445902563639","20151027_083459","0.748"
"2015/10/27 08:34:59","6","-0.774","10.231","2182","139.936943","patrol02","37.522009","1445902563740","20151027_083459","0.686"
"2015/10/27 08:34:59","6","-0.84","10.194","2183","139.936947","patrol02","37.522008","1445902563841","20151027_083459","0.594"
"2015/10/27 08:34:59","8","-0.754","10.07","2184","139.936953","patrol02","37.522008","1445902563941","20151027_083459","0.444"
"2015/10/27 08:34:59","8","-0.66","9.918","2185","139.936959","patrol02","37.522007","1445902564042","20151027_083459","0.44"
"2015/10/27 08:34:59","8","-0.612","9.931","2186","139.936966","patrol02","37.522007","1445902564138","20151027_083459","0.49"
"2015/10/27 08:34:59","8","-0.491","10.137","2187","139.936972","patrol02","37.522007","1445902564239","20151027_083459","0.554"
"2015/10/27 08:34:59","8","-0.473","10.187","2188","139.936979","patrol02","37.522007","1445902564339","20151027_083459","0.64"
"2015/10/27 08:34:59","8","-0.463","10.221","2189","139.936986","patrol02","37.522006","1445902564440","20151027_083459","0.62"
"2015/10/27 08:34:59","8","-0.588","10.265","2190","139.936992","patrol02","37.522006","1445902564541","20151027_083459","0.558"
"2015/10/27 08:34:59","8","-0.634","10.23","2191","139.936999","patrol02","37.522006","1445902564641","20151027_083459","0.448"
"2015/10/27 08:34:59","8","-0.632","10.146","2192","139.937006","patrol02","37.522005","1445902564742","20151027_083459","0.33"
"2015/10/27 08:34:59","8","-0.655","10.147","2193","139.937012","patrol02","37.522005","1445902564838","20151027_083459","0.23"
"2015/10/27 08:34:59","4","-0.761","10.142","2194","139.937019","patrol02","37.522004","1445902564938","20151027_083459","0.223"
"2015/10/27 08:34:59","4","-0.859","10.093","2195","139.937027","patrol02","37.522003","1445902565039","20151027_083459","0.237"
"2015/10/27 08:34:59","4","-0.903","10.134","2196","139.937034","patrol02","37.522003","1445902565140","20151027_083459","0.246"
"2015/10/27 08:34:59","4","-1.011","10.099","2197","139.937042","patrol02","37.522002","1445902565241","20151027_083459","0.301"
"2015/10/27 08:34:59","4","-1.058","9.852","2198","139.937049","patrol02","37.522001","1445902565341","20151027_083459","0.213"
"2015/10/27 08:34:59","4","-0.998","9.975","2199","139.937057","patrol02","37.522","1445902565442","20151027_083459","0.197"
"2015/10/27 08:34:59","4","-1.048","10.201","2200","139.937064","patrol02","37.521999","1445902565538","20151027_083459","0.187"
"2015/10/27 08:34:59","4","-1.066","10.181","2201","139.937072","patrol02","37.521998","1445902565638","20151027_083459","0.056"
"2015/10/27 08:34:59","4","-1.088","10.134","2202","139.937079","patrol02","37.521997","1445902565739","20151027_083459","-0.027"
"2015/10/27 08:34:59","4","-1.15","10.088","2203","139.937087","patrol02","37.521996","1445902565840","20151027_083459","-0.223"
"2015/10/27 08:34:59","4","-1.173","10.004","2204","139.937095","patrol02","37.521996","1445902565940","20151027_083459","-0.329"
"2015/10/27 08:34:59","4","-1.122","10.006","2205","139.937103","patrol02","37.521996","1445902566041","20151027_083459","-0.405"
"2015/10/27 08:34:59","4","-1.063","9.99","2206","139.937112","patrol02","37.521996","1445902566142","20151027_083459","-0.447"
"2015/10/27 08:34:59","4","-0.98","10.019","2207","139.93712","patrol02","37.521996","1445902566238","20151027_083459","-0.248"
"2015/10/27 08:34:59","4","-0.94","10.147","2208","139.937128","patrol02","37.521996","1445902566338","20151027_083459","-0.081"
"2015/10/27 08:34:59","4","-0.866","10.098","2209","139.937137","patrol02","37.521995","1445902566439","20151027_083459","-0.019"
"2015/10/27 08:34:59","4","-0.782","10.212","2210","139.937145","patrol02","37.521995","1445902566540","20151027_083459","0.004"
"2015/10/27 08:34:59","4","-0.74","10.101","2211","139.937154","patrol02","37.521995","1445902566640","20151027_083459","0.001"
"2015/10/27 08:34:59","4","-0.603","10.157","2212","139.937162","patrol02","37.521995","1445902566741","20151027_083459","-0.04"
"2015/10/27 08:34:59","4","-0.568","10.099","2213","139.93717","patrol02","37.521995","1445902566842","20151027_083459","-0.064"
"2015/10/27 08:34:59","4","-0.515","10.12","2214","139.937179","patrol02","37.521994","1445902566938","20151027_083459","-0.013"
"2015/10/27 08:34:59","4","-0.46","10.177","2215","139.937188","patrol02","37.521993","1445902567038","20151027_083459","-0.034"
"2015/10/27 08:34:59","4","-0.363","10.27","2216","139.937197","patrol02","37.521992","1445902567139","20151027_083459","0.006"
"2015/10/27 08:34:59","4","-0.244","10.201","2217","139.937207","patrol02","37.521991","1445902567240","20151027_083459","0.019"
"2015/10/27 08:34:59","4","-0.205","10.086","2218","139.937216","patrol02","37.52199","1445902567340","20151027_083459","0.038"
"2015/10/27 08:34:59","4","-0.164","10.13","2219","139.937225","patrol02","37.521989","1445902567441","20151027_083459","0.021"
"2015/10/27 08:34:59","4","-0.13","10.058","2220","139.937234","patrol02","37.521988","1445902567542","20151027_083459","-0.025"
"2015/10/27 08:34:59","4","-0.074","10.09","2221","139.937243","patrol02","37.521987","1445902567642","20151027_083459","-0.022"
"2015/10/27 08:34:59","4","-0.035","10.149","2222","139.937252","patrol02","37.521986","1445902567738","20151027_083459","-0.041"
"2015/10/27 08:34:59","4","-0.003","10.214","2223","139.937261","patrol02","37.521985","1445902567839","20151027_083459","-0.052"
"2015/10/27 08:34:59","3","-0.04","10.159","2224","139.93727","patrol02","37.521985","1445902567940","20151027_083459","-0.032"
"2015/10/27 08:34:59","3","-0.055","10.143","2225","139.937279","patrol02","37.521984","1445902568040","20151027_083459","-0.001"
"2015/10/27 08:34:59","3","-0.068","10.19","2226","139.937287","patrol02","37.521983","1445902568141","20151027_083459","0.088"
"2015/10/27 08:34:59","3","-0.091","10.136","2227","139.937296","patrol02","37.521983","1445902568242","20151027_083459","0.187"
"2015/10/27 08:34:59","3","0.022","10.267","2228","139.937304","patrol02","37.521982","1445902568342","20151027_083459","0.283"
"2015/10/27 08:34:59","3","0.143","10.228","2229","139.937312","patrol02","37.521982","1445902568438","20151027_083459","0.309"
"2015/10/27 08:34:59","3","0.211","10.216","2230","139.937321","patrol02","37.521981","1445902568539","20151027_083459","0.272"
"2015/10/27 08:34:59","3","0.187","10.082","2231","139.937329","patrol02","37.52198","1445902568639","20151027_083459","0.191"
"2015/10/27 08:34:59","3","0.195","10.029","2232","139.937338","patrol02","37.52198","1445902568740","20151027_083459","0.249"
"2015/10/27 08:34:59","3","0.225","9.953","2233","139.937346","patrol02","37.521979","1445902568841","20151027_083459","0.263"
"2015/10/27 08:34:59","4","0.399","10.087","2234","139.937354","patrol02","37.521979","1445902568942","20151027_083459","0.208"
"2015/10/27 08:34:59","4","0.56","10.198","2235","139.937361","patrol02","37.521978","1445902569042","20151027_083459","0.141"
"2015/10/27 08:34:59","4","0.633","10.099","2236","139.937367","patrol02","37.521977","1445902569138","20151027_083459","0.144"
"2015/10/27 08:34:59","4","0.689","10.063","2237","139.937374","patrol02","37.521977","1445902569239","20151027_083459","0.213"
"2015/10/27 08:34:59","4","0.697","10.123","2238","139.937381","patrol02","37.521976","1445902569339","20151027_083459","0.174"
"2015/10/27 08:34:59","4","0.731","10.067","2239","139.937388","patrol02","37.521976","1445902569440","20151027_083459","0.125"
"2015/10/27 08:34:59","4","0.807","10.085","2240","139.937395","patrol02","37.521975","1445902569541","20151027_083459","0.094"
"2015/10/27 08:34:59","4","0.78","10.119","2241","139.937402","patrol02","37.521974","1445902569642","20151027_083459","0.138"
"2015/10/27 08:34:59","4","0.797","10.147","2242","139.937409","patrol02","37.521974","1445902569742","20151027_083459","0.17"
"2015/10/27 08:34:59","4","0.759","10.127","2243","139.937416","patrol02","37.521973","1445902569838","20151027_083459","0.202"
"2015/10/27 08:34:59","4","0.57","9.79","2244","139.937422","patrol02","37.521972","1445902569939","20151027_083459","0.078"
"2015/10/27 08:34:59","4","0.456","9.724","2245","139.937428","patrol02","37.521972","1445902570039","20151027_083459","-0.195"
"2015/10/27 08:34:59","4","0.431","9.896","2246","139.937433","patrol02","37.521971","1445902570140","20151027_083459","-0.304"
"2015/10/27 08:34:59","4","0.523","10.191","2247","139.937439","patrol02","37.52197","1445902570241","20151027_083459","-0.133"
"2015/10/27 08:34:59","4","0.605","10.309","2248","139.937444","patrol02","37.521969","1445902570341","20151027_083459","-0.042"
"2015/10/27 08:34:59","4","0.498","10.151","2249","139.93745","patrol02","37.521968","1445902570442","20151027_083459","-0.131"
"2015/10/27 08:34:59","4","0.444","10.023","2250","139.937455","patrol02","37.521968","1445902570538","20151027_083459","-0.246"
"2015/10/27 08:34:59","4","0.374","10.164","2251","139.937461","patrol02","37.521967","1445902570638","20151027_083459","-0.32"
"2015/10/27 08:34:59","4","0.308","10.22","2252","139.937467","patrol02","37.521966","1445902570739","20151027_083459","-0.276"
"2015/10/27 08:34:59","4","0.291","10.063","2253","139.937472","patrol02","37.521965","1445902570840","20151027_083459","-0.311"
"2015/10/27 08:34:59","4","0.32","10.01","2254","139.937478","patrol02","37.521965","1445902570941","20151027_083459","-0.414"
"2015/10/27 08:34:59","4","0.301","10.136","2255","139.937483","patrol02","37.521964","1445902571041","20151027_083459","-0.425"
"2015/10/27 08:34:59","4","0.267","10.327","2256","139.937489","patrol02","37.521964","1445902571142","20151027_083459","-0.573"
"2015/10/27 08:34:59","4","0.112","10.347","2257","139.937494","patrol02","37.521964","1445902571238","20151027_083459","-0.463"
"2015/10/27 08:34:59","4","0.128","10.155","2258","139.937499","patrol02","37.521963","1445902571338","20151027_083459","-0.546"
"2015/10/27 08:34:59","4","0.245","9.9","2259","139.937505","patrol02","37.521963","1445902571439","20151027_083459","-0.763"
"2015/10/27 08:34:59","4","0.12","9.913","2260","139.93751","patrol02","37.521962","1445902571540","20151027_083459","-1.028"
"2015/10/27 08:34:59","4","0.21","9.875","2261","139.937516","patrol02","37.521962","1445902571641","20151027_083459","-1.424"
"2015/10/27 08:34:59","4","0.29","10.018","2262","139.937521","patrol02","37.521962","1445902571741","20151027_083459","-1.638"
"2015/10/27 08:34:59","4","0.315","9.955","2263","139.937526","patrol02","37.521961","1445902571842","20151027_083459","-1.735"
"2015/10/27 08:34:59","4","0.31","10.012","2264","139.937531","patrol02","37.521959","1445902571938","20151027_083459","-1.906"
"2015/10/27 08:34:59","4","0.262","10.045","2265","139.937536","patrol02","37.521956","1445902572038","20151027_083459","-2.111"
"2015/10/27 08:34:59","4","0.318","10.27","2266","139.93754","patrol02","37.521952","1445902572139","20151027_083459","-2.097"
"2015/10/27 08:34:59","4","0.286","10.296","2267","139.937545","patrol02","37.521949","1445902572240","20151027_083459","-2.033"
"2015/10/27 08:34:59","4","0.321","10.134","2268","139.937549","patrol02","37.521946","1445902572341","20151027_083459","-2.166"
"2015/10/27 08:34:59","4","0.313","10.11","2269","139.937554","patrol02","37.521943","1445902572441","20151027_083459","-2.156"
"2015/10/27 08:34:59","4","0.251","9.954","2270","139.937558","patrol02","37.52194","1445902572542","20151027_083459","-2.185"
"2015/10/27 08:34:59","4","0.172","9.747","2271","139.937563","patrol02","37.521937","1445902572638","20151027_083459","-2.324"
"2015/10/27 08:34:59","4","0.185","9.877","2272","139.937567","patrol02","37.521933","1445902572738","20151027_083459","-2.182"
"2015/10/27 08:34:59","4","0.172","9.809","2273","139.937572","patrol02","37.52193","1445902572839","20151027_083459","-2.262"
"2015/10/27 08:34:59","5","0.435","10.286","2274","139.937573","patrol02","37.521926","1445902572940","20151027_083459","-2.113"
"2015/10/27 08:34:59","5","0.499","10.494","2275","139.937575","patrol02","37.521923","1445902573040","20151027_083459","-2.18"
"2015/10/27 08:34:59","5","0.441","10.285","2276","139.937576","patrol02","37.521919","1445902573141","20151027_083459","-2.453"
"2015/10/27 08:34:59","5","0.326","10.085","2277","139.937578","patrol02","37.521915","1445902573242","20151027_083459","-2.677"
"2015/10/27 08:34:59","5","0.105","9.969","2278","139.93758","patrol02","37.521911","1445902573343","20151027_083459","-2.707"
"2015/10/27 08:34:59","5","-0.003","10.023","2279","139.937581","patrol02","37.521908","1445902573438","20151027_083459","-2.529"
"2015/10/27 08:34:59","5","-0.042","10.211","2280","139.937582","patrol02","37.521904","1445902573539","20151027_083459","-2.448"
"2015/10/27 08:34:59","5","-0.036","10.22","2281","139.937584","patrol02","37.5219","1445902573640","20151027_083459","-2.526"
"2015/10/27 08:34:59","5","-0.06","10.268","2282","139.937585","patrol02","37.521897","1445902573740","20151027_083459","-2.574"
"2015/10/27 08:34:59","3","-0.118","10.199","2283","139.937587","patrol02","37.521893","1445902573841","20151027_083459","-2.417"
"2015/10/27 08:34:59","3","-0.24","9.931","2284","139.937587","patrol02","37.521888","1445902573942","20151027_083459","-2.537"
"2015/10/27 08:34:59","3","-0.259","9.859","2285","139.937587","patrol02","37.521884","1445902574042","20151027_083459","-2.65"
"2015/10/27 08:34:59","3","-0.224","10.177","2286","139.937586","patrol02","37.521879","1445902574138","20151027_083459","-2.423"
"2015/10/27 08:34:59","3","-0.337","10.187","2287","139.937586","patrol02","37.521874","1445902574239","20151027_083459","-2.415"
"2015/10/27 08:34:59","3","-0.53","9.923","2288","139.937586","patrol02","37.52187","1445902574340","20151027_083459","-2.407"
"2015/10/27 08:34:59","3","-0.572","9.732","2289","139.937586","patrol02","37.521865","1445902574440","20151027_083459","-2.213"
"2015/10/27 08:34:59","3","-0.632","9.925","2290","139.937586","patrol02","37.52186","1445902574541","20151027_083459","-1.881"
"2015/10/27 08:34:59","3","-0.569","10.284","2291","139.937585","patrol02","37.521855","1445902574642","20151027_083459","-1.771"
"2015/10/27 08:34:59","3","-0.513","10.191","2292","139.937585","patrol02","37.521851","1445902574742","20151027_083459","-1.781"
"2015/10/27 08:34:59","3","-0.603","9.822","2293","139.937585","patrol02","37.521846","1445902574838","20151027_083459","-1.822"
"2015/10/27 08:34:59","3","-0.744","9.91","2294","139.937584","patrol02","37.521841","1445902574939","20151027_083459","-1.471"
"2015/10/27 08:34:59","3","-0.837","10.0","2295","139.937583","patrol02","37.521835","1445902575039","20151027_083459","-1.157"
"2015/10/27 08:34:59","3","-0.985","9.997","2296","139.937582","patrol02","37.52183","1445902575140","20151027_083459","-0.658"
"2015/10/27 08:34:59","3","-1.025","9.862","2297","139.937581","patrol02","37.521824","1445902575241","20151027_083459","-0.437"
"2015/10/27 08:34:59","3","-0.93","10.018","2298","139.93758","patrol02","37.521819","1445902575342","20151027_083459","-0.168"
"2015/10/27 08:34:59","3","-0.961","10.108","2299","139.937579","patrol02","37.521813","1445902575442","20151027_083459","-0.274"
"2015/10/27 08:34:59","3","-1.041","9.948","2300","139.937578","patrol02","37.521808","1445902575538","20151027_083459","-0.279"
"2015/10/27 08:34:59","3","-0.974","10.051","2301","139.937577","patrol02","37.521802","1445902575639","20151027_083459","-0.134"
"2015/10/27 08:34:59","3","-0.848","10.111","2302","139.937576","patrol02","37.521797","1445902575739","20151027_083459","-0.103"
"2015/10/27 08:34:59","3","-0.705","10.189","2303","139.937575","patrol02","37.521791","1445902575840","20151027_083459","-0.101"
"2015/10/27 08:34:59","3","-0.444","10.028","2304","139.937575","patrol02","37.521786","1445902575941","20151027_083459","-0.189"
"2015/10/27 08:34:59","3","-0.332","10.137","2305","139.937574","patrol02","37.52178","1445902576041","20151027_083459","-0.044"
"2015/10/27 08:34:59","3","-0.222","10.19","2306","139.937574","patrol02","37.521775","1445902576138","20151027_083459","-0.031"
"2015/10/27 08:34:59","3","-0.262","10.116","2307","139.937573","patrol02","37.52177","1445902576238","20151027_083459","0.134"
"2015/10/27 08:34:59","3","-0.145","10.129","2308","139.937573","patrol02","37.521764","1445902576339","20151027_083459","0.335"
"2015/10/27 08:34:59","3","-0.077","10.209","2309","139.937572","patrol02","37.521759","1445902576439","20151027_083459","0.295"
"2015/10/27 08:34:59","3","-0.168","9.944","2310","139.937572","patrol02","37.521753","1445902576540","20151027_083459","0.409"
"2015/10/27 08:34:59","3","-0.097","9.916","2311","139.937571","patrol02","37.521748","1445902576641","20151027_083459","0.351"
"2015/10/27 08:34:59","3","-0.007","10.107","2312","139.937571","patrol02","37.521742","1445902576741","20151027_083459","0.391"
"2015/10/27 08:34:59","4","-0.067","10.073","2313","139.93757","patrol02","37.521737","1445902576842","20151027_083459","0.37"
"2015/10/27 08:34:59","4","-0.044","10.01","2314","139.93757","patrol02","37.521732","1445902576938","20151027_083459","0.125"
"2015/10/27 08:34:59","4","-0.041","10.125","2315","139.937569","patrol02","37.521726","1445902577039","20151027_083459","0.106"
"2015/10/27 08:34:59","4","-0.032","10.298","2316","139.937569","patrol02","37.52172","1445902577139","20151027_083459","0.206"
"2015/10/27 08:34:59","4","-0.11","10.162","2317","139.937568","patrol02","37.521715","1445902577240","20151027_083459","0.305"
"2015/10/27 08:34:59","4","-0.053","10.064","2318","139.937568","patrol02","37.521709","1445902577341","20151027_083459","0.26"
"2015/10/27 08:34:59","4","0.022","10.169","2319","139.937567","patrol02","37.521704","1445902577441","20151027_083459","0.262"
"2015/10/27 08:34:59","4","0.03","10.121","2320","139.937567","patrol02","37.521698","1445902577542","20151027_083459","0.201"
"2015/10/27 08:34:59","4","0.104","10.064","2321","139.937566","patrol02","37.521693","1445902577638","20151027_083459","0.323"
"2015/10/27 08:34:59","4","0.276","10.251","2322","139.937566","patrol02","37.521687","1445902577738","20151027_083459","0.403"
"2015/10/27 08:34:59","4","0.422","10.337","2323","139.937565","patrol02","37.521681","1445902577839","20151027_083459","0.364"
"2015/10/27 08:34:59","4","0.688","10.225","2324","139.937564","patrol02","37.521677","1445902577940","20151027_083459","0.217"
"2015/10/27 08:34:59","4","0.946","10.014","2325","139.937564","patrol02","37.521672","1445902578041","20151027_083459","-0.033"
"2015/10/27 08:34:59","4","1.095","10.458","2326","139.937563","patrol02","37.521668","1445902578141","20151027_083459","0.222"
"2015/10/27 08:34:59","4","0.988","10.269","2327","139.937562","patrol02","37.521663","1445902578242","20151027_083459","0.338"
"2015/10/27 08:34:59","4","0.887","9.846","2328","139.937562","patrol02","37.521659","1445902578338","20151027_083459","0.288"
"2015/10/27 08:34:59","4","0.957","9.903","2329","139.937561","patrol02","37.521654","1445902578438","20151027_083459","0.227"
"2015/10/27 08:34:59","4","1.029","10.211","2330","139.93756","patrol02","37.52165","1445902578539","20151027_083459","0.232"
"2015/10/27 08:34:59","4","0.87","10.298","2331","139.937559","patrol02","37.521645","1445902578640","20151027_083459","0.226"
"2015/10/27 08:34:59","4","0.814","9.975","2332","139.937559","patrol02","37.521641","1445902578740","20151027_083459","0.165"
"2015/10/27 08:34:59","4","0.772","9.602","2333","139.937558","patrol02","37.521636","1445902578841","20151027_083459","0.11"
"2015/10/27 08:34:59","4","0.851","9.98","2334","139.937557","patrol02","37.521633","1445902578942","20151027_083459","0.178"
"2015/10/27 08:34:59","4","0.999","10.188","2335","139.937556","patrol02","37.52163","1445902579038","20151027_083459","0.094"
"2015/10/27 08:34:59","4","1.051","10.436","2336","139.937556","patrol02","37.521627","1445902579138","20151027_083459","0.065"
"2015/10/27 08:34:59","4","1.045","10.193","2337","139.937555","patrol02","37.521624","1445902579239","20151027_083459","0.197"
"2015/10/27 08:34:59","4","0.972","9.759","2338","139.937554","patrol02","37.521622","1445902579340","20151027_083459","0.139"
"2015/10/27 08:34:59","4","1.032","9.694","2339","139.937553","patrol02","37.521619","1445902579440","20151027_083459","0.121"
"2015/10/27 08:34:59","4","1.085","9.896","2340","139.937552","patrol02","37.521616","1445902579541","20151027_083459","0.031"
"2015/10/27 08:34:59","4","1.283","10.223","2341","139.937552","patrol02","37.521613","1445902579642","20151027_083459","0.041"
"2015/10/27 08:34:59","4","1.4","10.422","2342","139.937551","patrol02","37.52161","1445902579738","20151027_083459","0.086"
"2015/10/27 08:34:59","4","1.512","10.182","2343","139.93755","patrol02","37.521607","1445902579838","20151027_083459","0.143"
"2015/10/27 08:34:59","3","1.641","10.022","2344","139.937551","patrol02","37.521606","1445902579939","20151027_083459","0.195"
"2015/10/27 08:34:59","3","1.675","9.94","2345","139.937551","patrol02","37.521604","1445902580040","20151027_083459","0.108"
"2015/10/27 08:34:59","3","1.701","9.95","2346","139.937552","patrol02","37.521603","1445902580140","20151027_083459","-0.038"
"2015/10/27 08:34:59","3","1.863","10.253","2347","139.937552","patrol02","37.521601","1445902580241","20151027_083459","0.041"
"2015/10/27 08:34:59","3","2.156","10.391","2348","139.937553","patrol02","37.5216","1445902580342","20151027_083459","0.011"
"2015/10/27 08:34:59","3","2.315","10.434","2349","139.937554","patrol02","37.521598","1445902580442","20151027_083459","0.025"
"2015/10/27 08:34:59","3","2.354","10.323","2350","139.937554","patrol02","37.521597","1445902580538","20151027_083459","0.123"
"2015/10/27 08:34:59","3","2.279","10.184","2351","139.937555","patrol02","37.521595","1445902580639","20151027_083459","0.345"
"2015/10/27 08:34:59","3","1.923","9.934","2352","139.937555","patrol02","37.521594","1445902580740","20151027_083459","0.372"
"2015/10/27 08:34:59","3","1.591","9.831","2353","139.937556","patrol02","37.521592","1445902580840","20151027_083459","0.215"
"2015/10/27 08:34:59","3","1.298","9.931","2354","139.937556","patrol02","37.521592","1445902580941","20151027_083459","0.144"
"2015/10/27 08:34:59","3","1.088","10.062","2355","139.937556","patrol02","37.521591","1445902581042","20151027_083459","0.188"
"2015/10/27 08:34:59","3","0.949","10.121","2356","139.937555","patrol02","37.521591","1445902581142","20151027_083459","0.277"
"2015/10/27 08:34:59","3","0.842","10.105","2357","139.937555","patrol02","37.521591","1445902581238","20151027_083459","0.273"
"2015/10/27 08:34:59","3","0.764","10.136","2358","139.937555","patrol02","37.521591","1445902581339","20151027_083459","0.188"
"2015/10/27 08:34:59","3","0.661","10.111","2359","139.937555","patrol02","37.52159","1445902581439","20151027_083459","0.199"
"2015/10/27 08:34:59","3","0.571","10.101","2360","139.937555","patrol02","37.52159","1445902581540","20151027_083459","0.301"
"2015/10/27 08:34:59","3","0.519","10.113","2361","139.937554","patrol02","37.52159","1445902581641","20151027_083459","0.39"
"2015/10/27 08:34:59","3","0.484","10.096","2362","139.937554","patrol02","37.521589","1445902581742","20151027_083459","0.348"
"2015/10/27 08:34:59","3","0.466","10.099","2363","139.937554","patrol02","37.521589","1445902581842","20151027_083459","0.262"
"2015/10/27 08:34:59","3","0.45","10.098","2364","139.937554","patrol02","37.521589","1445902581938","20151027_083459","0.227"
"2015/10/27 08:34:59","3","0.436","10.097","2365","139.937555","patrol02","37.521589","1445902582039","20151027_083459","0.251"
"2015/10/27 08:34:59","3","0.406","10.107","2366","139.937555","patrol02","37.521589","1445902582139","20151027_083459","0.287"
"2015/10/27 08:34:59","3","0.123","10.143","2367","139.937556","patrol02","37.521589","1445902582240","20151027_083459","0.266"
"2015/10/27 08:34:59","3","-0.281","10.15","2368","139.937556","patrol02","37.521589","1445902582341","20151027_083459","0.255"
"2015/10/27 08:34:59","3","-0.418","10.078","2369","139.937557","patrol02","37.521588","1445902582442","20151027_083459","0.256"
"2015/10/27 08:34:59","3","-0.39","10.105","2370","139.937557","patrol02","37.521588","1445902582542","20151027_083459","0.271"
"2015/10/27 08:34:59","3","-0.343","10.121","2371","139.937558","patrol02","37.521588","1445902582638","20151027_083459","0.292"
"2015/10/27 08:34:59","3","-0.41","10.112","2372","139.937558","patrol02","37.521588","1445902582739","20151027_083459","0.292"
"2015/10/27 08:34:59","3","-0.575","10.113","2373","139.937559","patrol02","37.521588","1445902582840","20151027_083459","0.287"
"2015/10/27 08:34:59","3","-0.776","10.106","2374","139.937559","patrol02","37.521588","1445902582940","20151027_083459","0.302"
"2015/10/27 08:34:59","3","-0.889","10.095","2375","139.937559","patrol02","37.521587","1445902583041","20151027_083459","0.287"
"2015/10/27 08:34:59","3","-0.974","10.12","2376","139.937558","patrol02","37.521587","1445902583141","20151027_083459","0.276"
"2015/10/27 08:34:59","3","-1.026","10.118","2377","139.937558","patrol02","37.521587","1445902583242","20151027_083459","0.256"
"2015/10/27 08:34:59","3","-1.08","10.109","2378","139.937558","patrol02","37.521587","1445902583338","20151027_083459","0.248"
"2015/10/27 08:34:59","3","-1.208","10.124","2379","139.937558","patrol02","37.521586","1445902583439","20151027_083459","0.22"
"2015/10/27 08:34:59","3","-1.495","10.147","2380","139.937558","patrol02","37.521586","1445902583539","20151027_083459","0.167"
"2015/10/27 08:34:59","3","-1.851","10.147","2381","139.937557","patrol02","37.521586","1445902583640","20151027_083459","0.099"
"2015/10/27 08:34:59","3","-2.103","9.995","2382","139.937557","patrol02","37.521585","1445902583741","20151027_083459","-0.111"
"2015/10/27 08:34:59","4","-2.241","9.832","2383","139.937557","patrol02","37.521585","1445902583841","20151027_083459","-0.289"
"2015/10/27 08:34:59","4","-2.332","9.782","2384","139.937555","patrol02","37.521583","1445902583942","20151027_083459","-0.385"
"2015/10/27 08:34:59","4","-2.389","10.019","2385","139.937553","patrol02","37.521581","1445902584038","20151027_083459","-0.453"
"2015/10/27 08:34:59","4","-2.432","10.095","2386","139.937551","patrol02","37.521578","1445902584138","20151027_083459","-0.446"
"2015/10/27 08:34:59","4","-2.392","10.223","2387","139.937549","patrol02","37.521576","1445902584239","20151027_083459","-0.36"
"2015/10/27 08:34:59","4","-2.311","10.157","2388","139.937547","patrol02","37.521574","1445902584340","20151027_083459","-0.414"
"2015/10/27 08:34:59","4","-2.219","10.044","2389","139.937544","patrol02","37.521572","1445902584441","20151027_083459","-0.497"
"2015/10/27 08:34:59","4","-1.993","10.131","2390","139.937542","patrol02","37.52157","1445902584541","20151027_083459","-0.521"
"2015/10/27 08:34:59","4","-1.841","10.093","2391","139.93754","patrol02","37.521567","1445902584642","20151027_083459","-0.542"
"2015/10/27 08:34:59","4","-1.832","10.038","2392","139.937538","patrol02","37.521565","1445902584738","20151027_083459","-0.594"
"2015/10/27 08:34:59","4","-1.924","9.853","2393","139.937536","patrol02","37.521563","1445902584838","20151027_083459","-0.762"
"2015/10/27 08:34:59","4","-1.867","9.966","2394","139.937533","patrol02","37.521561","1445902584939","20151027_083459","-0.903"
"2015/10/27 08:34:59","4","-1.688","10.12","2395","139.937529","patrol02","37.521559","1445902585040","20151027_083459","-0.955"
"2015/10/27 08:34:59","4","-1.48","10.221","2396","139.937526","patrol02","37.521557","1445902585140","20151027_083459","-0.885"
"2015/10/27 08:34:59","4","-1.451","10.101","2397","139.937522","patrol02","37.521555","1445902585241","20151027_083459","-0.845"
"2015/10/27 08:34:59","4","-1.578","10.058","2398","139.937519","patrol02","37.521553","1445902585342","20151027_083459","-0.816"
"2015/10/27 08:34:59","4","-1.537","10.111","2399","139.937515","patrol02","37.521551","1445902585438","20151027_083459","-0.876"
"2015/10/27 08:34:59","4","-1.481","10.094","2400","139.937512","patrol02","37.521548","1445902585538","20151027_083459","-0.908"
"2015/10/27 08:34:59","4","-1.419","10.136","2401","139.937508","patrol02","37.521546","1445902585639","20151027_083459","-0.889"
"2015/10/27 08:34:59","4","-1.443","10.096","2402","139.937505","patrol02","37.521544","1445902585740","20151027_083459","-0.897"
"2015/10/27 08:34:59","4","-1.5","10.02","2403","139.937501","patrol02","37.521542","1445902585840","20151027_083459","-0.947"
"2015/10/27 08:34:59","4","-1.498","10.018","2404","139.937497","patrol02","37.521539","1445902585941","20151027_083459","-1.087"
"2015/10/27 08:34:59","4","-1.392","9.926","2405","139.937493","patrol02","37.521536","1445902586042","20151027_083459","-1.26"
"2015/10/27 08:34:59","4","-1.336","9.923","2406","139.937489","patrol02","37.521533","1445902586142","20151027_083459","-1.407"
"2015/10/27 08:34:59","4","-1.247","9.731","2407","139.937485","patrol02","37.52153","1445902586238","20151027_083459","-1.725"
"2015/10/27 08:34:59","4","-1.208","9.762","2408","139.937481","patrol02","37.521527","1445902586339","20151027_083459","-1.679"
"2015/10/27 08:34:59","4","-1.179","9.81","2409","139.937477","patrol02","37.521524","1445902586440","20151027_083459","-1.576"
"2015/10/27 08:34:59","4","-1.101","9.952","2410","139.937472","patrol02","37.52152","1445902586540","20151027_083459","-1.524"
"2015/10/27 08:34:59","4","-1.131","9.847","2411","139.937468","patrol02","37.521517","1445902586641","20151027_083459","-1.659"
"2015/10/27 08:34:59","4","-1.112","9.889","2412","139.937464","patrol02","37.521514","1445902586742","20151027_083459","-1.698"
"2015/10/27 08:34:59","4","-1.052","9.973","2413","139.93746","patrol02","37.521511","1445902586842","20151027_083459","-1.689"
"2015/10/27 08:34:59","4","-1.068","10.059","2414","139.937454","patrol02","37.521511","1445902586938","20151027_083459","-1.571"
"2015/10/27 08:34:59","4","-1.058","10.035","2415","139.937447","patrol02","37.52151","1445902587039","20151027_083459","-1.659"
"2015/10/27 08:34:59","4","-1.028","9.987","2416","139.937441","patrol02","37.52151","1445902587140","20151027_083459","-1.809"
"2015/10/27 08:34:59","4","-0.966","10.069","2417","139.937434","patrol02","37.521509","1445902587240","20151027_083459","-2.023"
"2015/10/27 08:34:59","4","-0.839","10.076","2418","139.937428","patrol02","37.521509","1445902587341","20151027_083459","-2.2"
"2015/10/27 08:34:59","4","-0.84","10.055","2419","139.937421","patrol02","37.521509","1445902587442","20151027_083459","-2.052"
"2015/10/27 08:34:59","4","-0.857","9.95","2420","139.937415","patrol02","37.521508","1445902587542","20151027_083459","-1.833"
"2015/10/27 08:34:59","4","-0.832","10.124","2421","139.937408","patrol02","37.521508","1445902587638","20151027_083459","-1.836"
"2015/10/27 08:34:59","4","-0.892","10.128","2422","139.937402","patrol02","37.521507","1445902587739","20151027_083459","-1.842"
"2015/10/27 08:34:59","4","-0.853","9.94","2423","139.937395","patrol02","37.521507","1445902587839","20151027_083459","-1.903"
"2015/10/27 08:34:59","4","-0.849","10.108","2424","139.937387","patrol02","37.521507","1445902587940","20151027_083459","-1.9"
"2015/10/27 08:34:59","4","-0.948","10.013","2425","139.937379","patrol02","37.521508","1445902588041","20151027_083459","-2.057"
"2015/10/27 08:34:59","4","-0.83","10.083","2426","139.937371","patrol02","37.521508","1445902588142","20151027_083459","-1.946"
"2015/10/27 08:34:59","4","-0.889","10.213","2427","139.937363","patrol02","37.521509","1445902588242","20151027_083459","-1.424"
"2015/10/27 08:34:59","4","-1.018","10.028","2428","139.937355","patrol02","37.521509","1445902588338","20151027_083459","-1.029"
"2015/10/27 08:34:59","4","-0.932","9.957","2429","139.937347","patrol02","37.52151","1445902588439","20151027_083459","-1.075"
"2015/10/27 08:34:59","4","-0.901","9.908","2430","139.937339","patrol02","37.52151","1445902588539","20151027_083459","-1.344"
"2015/10/27 08:34:59","4","-0.908","9.931","2431","139.937331","patrol02","37.521511","1445902588640","20151027_083459","-1.473"
"2015/10/27 08:34:59","4","-0.91","9.867","2432","139.937323","patrol02","37.521511","1445902588741","20151027_083459","-1.498"
"2015/10/27 08:34:59","3","-1.024","9.913","2433","139.937315","patrol02","37.521512","1445902588842","20151027_083459","-1.333"
"2015/10/27 08:34:59","3","-0.963","10.192","2434","139.937306","patrol02","37.521513","1445902588942","20151027_083459","-1.186"
"2015/10/27 08:34:59","3","-0.98","10.102","2435","139.937298","patrol02","37.521514","1445902589038","20151027_083459","-1.161"
"2015/10/27 08:34:59","3","-0.987","10.037","2436","139.93729","patrol02","37.521515","1445902589139","20151027_083459","-1.054"
"2015/10/27 08:34:59","3","-1.067","10.235","2437","139.937281","patrol02","37.521516","1445902589239","20151027_083459","-0.724"
"2015/10/27 08:34:59","3","-1.116","10.152","2438","139.937273","patrol02","37.521517","1445902589340","20151027_083459","-0.78"
"2015/10/27 08:34:59","3","-1.125","10.253","2439","139.937264","patrol02","37.521518","1445902589441","20151027_083459","-0.594"
"2015/10/27 08:34:59","3","-1.183","10.092","2440","139.937256","patrol02","37.521519","1445902589541","20151027_083459","-0.57"
"2015/10/27 08:34:59","3","-1.179","10.034","2441","139.937247","patrol02","37.52152","1445902589642","20151027_083459","-0.502"
"2015/10/27 08:34:59","3","-1.229","10.176","2442","139.937239","patrol02","37.521521","1445902589738","20151027_083459","-0.351"
"2015/10/27 08:34:59","3","-1.24","10.057","2443","139.93723","patrol02","37.521522","1445902589839","20151027_083459","-0.372"
"2015/10/27 08:34:59","3","-1.219","10.276","2444","139.93722","patrol02","37.521523","1445902589939","20151027_083459","-0.056"
"2015/10/27 08:34:59","3","-1.245","10.322","2445","139.93721","patrol02","37.521523","1445902590040","20151027_083459","0.204"
"2015/10/27 08:34:59","3","-1.236","10.238","2446","139.9372","patrol02","37.521524","1445902590141","20151027_083459","0.258"
"2015/10/27 08:34:59","3","-1.25","10.273","2447","139.937189","patrol02","37.521525","1445902590241","20151027_083459","0.371"
"2015/10/27 08:34:59","3","-1.267","10.317","2448","139.937179","patrol02","37.521525","1445902590342","20151027_083459","0.325"
"2015/10/27 08:34:59","3","-1.252","10.142","2449","139.937169","patrol02","37.521526","1445902590438","20151027_083459","0.098"
"2015/10/27 08:34:59","3","-1.231","10.144","2450","139.937159","patrol02","37.521527","1445902590538","20151027_083459","0.053"
"2015/10/27 08:34:59","3","-1.222","10.105","2451","139.937149","patrol02","37.521528","1445902590639","20151027_083459","0.033"
"2015/10/27 08:34:59","3","-1.21","9.965","2452","139.937138","patrol02","37.521528","1445902590740","20151027_083459","-0.095"
"2015/10/27 08:34:59","3","-1.106","9.84","2453","139.937128","patrol02","37.521529","1445902590841","20151027_083459","-0.243"
"2015/10/27 08:34:59","3","-1.063","9.964","2454","139.937118","patrol02","37.52153","1445902590941","20151027_083459","-0.169"
"2015/10/27 08:34:59","3","-0.992","10.181","2455","139.937108","patrol02","37.52153","1445902591042","20151027_083459","0.017"
"2015/10/27 08:34:59","3","-0.946","10.235","2456","139.937098","patrol02","37.521531","1445902591138","20151027_083459","0.094"
"2015/10/27 08:34:59","3","-0.923","10.056","2457","139.937088","patrol02","37.521531","1445902591238","20151027_083459","-0.014"
"2015/10/27 08:34:59","3","-1.004","9.943","2458","139.937078","patrol02","37.521532","1445902591339","20151027_083459","-0.092"
"2015/10/27 08:34:59","3","-0.972","9.999","2459","139.937068","patrol02","37.521533","1445902591440","20151027_083459","-0.126"
"2015/10/27 08:34:59","3","-0.936","10.263","2460","139.937057","patrol02","37.521533","1445902591540","20151027_083459","0.124"
"2015/10/27 08:34:59","3","-0.945","10.328","2461","139.937047","patrol02","37.521534","1445902591641","20151027_083459","0.158"
"2015/10/27 08:34:59","3","-0.957","10.218","2462","139.937037","patrol02","37.521534","1445902591742","20151027_083459","0.096"
"2015/10/27 08:34:59","3","-1.047","10.131","2463","139.937028","patrol02","37.521535","1445902591838","20151027_083459","-0.076"
"2015/10/27 08:34:59","3","-0.941","10.244","2464","139.937016","patrol02","37.521536","1445902591938","20151027_083459","-0.114"
"2015/10/27 08:34:59","3","-0.875","10.28","2465","139.937004","patrol02","37.521537","1445902592039","20151027_083459","-0.146"
"2015/10/27 08:34:59","3","-0.833","10.123","2466","139.936992","patrol02","37.521538","1445902592140","20151027_083459","-0.26"
"2015/10/27 08:34:59","3","-0.859","9.843","2467","139.93698","patrol02","37.521539","1445902592240","20151027_083459","-0.575"
"2015/10/27 08:34:59","3","-0.871","9.862","2468","139.936968","patrol02","37.52154","1445902592341","20151027_083459","-0.641"
"2015/10/27 08:34:59","3","-0.8","10.058","2469","139.936956","patrol02","37.521541","1445902592442","20151027_083459","-0.541"
"2015/10/27 08:34:59","3","-0.825","10.111","2470","139.936944","patrol02","37.521542","1445902592542","20151027_083459","-0.342"
"2015/10/27 08:34:59","3","-0.781","10.183","2471","139.936933","patrol02","37.521543","1445902592638","20151027_083459","-0.393"
"2015/10/27 08:34:59","3","-0.815","10.285","2472","139.936921","patrol02","37.521544","1445902592739","20151027_083459","-0.084"
"2015/10/27 08:34:59","3","-0.708","10.245","2473","139.936909","patrol02","37.521545","1445902592840","20151027_083459","-0.328"
"2015/10/27 08:34:59","3","-0.779","10.133","2474","139.936896","patrol02","37.521546","1445902592940","20151027_083459","-0.557"
"2015/10/27 08:34:59","3","-0.709","10.008","2475","139.936884","patrol02","37.521548","1445902593041","20151027_083459","-0.619"
"2015/10/27 08:34:59","3","-0.727","9.916","2476","139.936872","patrol02","37.521549","1445902593142","20151027_083459","-0.569"
"2015/10/27 08:34:59","3","-0.688","9.938","2477","139.93686","patrol02","37.521551","1445902593242","20151027_083459","-0.567"
"2015/10/27 08:34:59","3","-0.643","9.88","2478","139.936849","patrol02","37.521552","1445902593338","20151027_083459","-0.548"
"2015/10/27 08:34:59","3","-0.62","9.951","2479","139.936836","patrol02","37.521553","1445902593439","20151027_083459","-0.384"
"2015/10/27 08:34:59","3","-0.592","9.957","2480","139.936824","patrol02","37.521555","1445902593540","20151027_083459","-0.38"
"2015/10/27 08:34:59","3","-0.587","9.887","2481","139.936812","patrol02","37.521556","1445902593640","20151027_083459","-0.342"
"2015/10/27 08:34:59","3","-0.583","9.944","2482","139.9368","patrol02","37.521558","1445902593741","20151027_083459","-0.238"
"2015/10/27 08:34:59","3","-0.617","9.97","2483","139.936788","patrol02","37.521559","1445902593842","20151027_083459","-0.124"
"2015/10/27 08:34:59","3","-0.638","10.006","2484","139.936776","patrol02","37.52156","1445902593942","20151027_083459","0.015"
"2015/10/27 08:34:59","3","-0.63","10.028","2485","139.936764","patrol02","37.521562","1445902594038","20151027_083459","0.059"
"2015/10/27 08:34:59","3","-0.65","10.067","2486","139.936752","patrol02","37.521563","1445902594139","20151027_083459","0.17"
"2015/10/27 08:34:59","3","-0.594","10.243","2487","139.93674","patrol02","37.521564","1445902594239","20151027_083459","0.247"
"2015/10/27 08:34:59","3","-0.606","10.269","2488","139.936727","patrol02","37.521565","1445902594340","20151027_083459","0.348"
"2015/10/27 08:34:59","3","-0.654","10.241","2489","139.936715","patrol02","37.521567","1445902594441","20151027_083459","0.466"
"2015/10/27 08:34:59","3","-0.64","10.23","2490","139.936703","patrol02","37.521568","1445902594542","20151027_083459","0.507"
"2015/10/27 08:34:59","3","-0.572","10.228","2491","139.936691","patrol02","37.521569","1445902594642","20151027_083459","0.326"
"2015/10/27 08:34:59","3","-0.526","10.125","2492","139.936679","patrol02","37.521571","1445902594738","20151027_083459","0.183"
"2015/10/27 08:34:59","3","-0.548","9.922","2493","139.936667","patrol02","37.521572","1445902594839","20151027_083459","0.246"
"2015/10/27 08:34:59","3","-0.504","9.989","2494","139.936653","patrol02","37.521573","1445902594939","20151027_083459","0.318"
"2015/10/27 08:34:59","3","-0.495","10.153","2495","139.93664","patrol02","37.521574","1445902595040","20151027_083459","0.454"
"2015/10/27 08:34:59","3","-0.579","10.164","2496","139.936627","patrol02","37.521575","1445902595141","20151027_083459","0.505"
"2015/10/27 08:34:59","3","-0.592","10.131","2497","139.936613","patrol02","37.521576","1445902595241","20151027_083459","0.573"
"2015/10/27 08:34:59","3","-0.532","10.137","2498","139.9366","patrol02","37.521578","1445902595342","20151027_083459","0.425"
"2015/10/27 08:34:59","3","-0.468","9.987","2499","139.936587","patrol02","37.521579","1445902595438","20151027_083459","0.242"
"2015/10/27 08:34:59","3","-0.487","9.911","2500","139.936574","patrol02","37.52158","1445902595539","20151027_083459","0.253"
"2015/10/27 08:34:59","3","-0.525","10.108","2501","139.936561","patrol02","37.521581","1445902595639","20151027_083459","0.362"
"2015/10/27 08:34:59","3","-0.578","10.093","2502","139.936547","patrol02","37.521582","1445902595740","20151027_083459","0.3"
"2015/10/27 08:34:59","3","-0.494","10.088","2503","139.936534","patrol02","37.521583","1445902595841","20151027_083459","0.239"
"2015/10/27 08:34:59","3","-0.457","10.017","2504","139.936521","patrol02","37.521584","1445902595941","20151027_083459","0.147"
"2015/10/27 08:34:59","3","-0.545","10.047","2505","139.936508","patrol02","37.521584","1445902596042","20151027_083459","0.262"
"2015/10/27 08:34:59","3","-0.53","10.078","2506","139.936496","patrol02","37.521584","1445902596138","20151027_083459","0.305"
"2015/10/27 08:34:59","3","-0.407","9.974","2507","139.936483","patrol02","37.521585","1445902596238","20151027_083459","0.189"
"2015/10/27 08:34:59","3","-0.429","9.999","2508","139.93647","patrol02","37.521586","1445902596339","20151027_083459","0.229"
"2015/10/27 08:34:59","3","-0.475","10.191","2509","139.936458","patrol02","37.521586","1445902596440","20151027_083459","0.306"
"2015/10/27 08:34:59","3","-0.477","10.19","2510","139.936445","patrol02","37.521587","1445902596541","20151027_083459","0.258"
"2015/10/27 08:34:59","3","-0.471","10.023","2511","139.936432","patrol02","37.521587","1445902596641","20151027_083459","0.126"
"2015/10/27 08:34:59","3","-0.498","10.137","2512","139.936419","patrol02","37.521588","1445902596742","20151027_083459","0.261"
"2015/10/27 08:34:59","3","-0.481","10.193","2513","139.936407","patrol02","37.521588","1445902596838","20151027_083459","0.173"
"2015/10/27 08:34:59","3","-0.501","10.034","2514","139.936394","patrol02","37.521589","1445902596938","20151027_083459","0.081"
"2015/10/27 08:34:59","3","-0.472","10.044","2515","139.936381","patrol02","37.52159","1445902597039","20151027_083459","0.006"
"2015/10/27 08:34:59","3","-0.382","10.263","2516","139.936368","patrol02","37.521591","1445902597140","20151027_083459","0.065"
"2015/10/27 08:34:59","3","-0.375","10.232","2517","139.936354","patrol02","37.521592","1445902597240","20151027_083459","0.003"
"2015/10/27 08:34:59","3","-0.419","10.122","2518","139.936341","patrol02","37.521593","1445902597341","20151027_083459","-0.069"
"2015/10/27 08:34:59","3","-0.49","10.093","2519","139.936328","patrol02","37.521593","1445902597442","20151027_083459","-0.03"
"2015/10/27 08:34:59","3","-0.406","10.035","2520","139.936316","patrol02","37.521594","1445902597538","20151027_083459","-0.02"
"2015/10/27 08:34:59","3","-0.252","10.336","2521","139.936302","patrol02","37.521595","1445902597638","20151027_083459","0.02"
"2015/10/27 08:34:59","3","-0.287","10.252","2522","139.936289","patrol02","37.521596","1445902597739","20151027_083459","0.057"
"2015/10/27 08:34:59","4","-0.462","10.129","2523","139.936276","patrol02","37.521597","1445902597840","20151027_083459","0.335"
"2015/10/27 08:34:59","4","-0.432","10.039","2524","139.936263","patrol02","37.521597","1445902597940","20151027_083459","0.36"
"2015/10/27 08:34:59","4","-0.428","9.741","2525","139.93625","patrol02","37.521598","1445902598041","20151027_083459","0.454"
"2015/10/27 08:34:59","4","-0.223","10.108","2526","139.936237","patrol02","37.521598","1445902598142","20151027_083459","0.408"
"2015/10/27 08:34:59","4","-0.109","10.223","2527","139.936224","patrol02","37.521599","1445902598238","20151027_083459","0.331"
"2015/10/27 08:34:59","4","-0.25","9.985","2528","139.936211","patrol02","37.521599","1445902598338","20151027_083459","0.236"
"2015/10/27 08:34:59","4","-0.137","9.928","2529","139.936198","patrol02","37.5216","1445902598439","20151027_083459","0.103"
"2015/10/27 08:34:59","4","-0.004","10.035","2530","139.936185","patrol02","37.5216","1445902598540","20151027_083459","0.021"
"2015/10/27 08:34:59","4","0.013","10.01","2531","139.936172","patrol02","37.521601","1445902598640","20151027_083459","0.013"
"2015/10/27 08:34:59","4","-0.017","9.976","2532","139.936159","patrol02","37.521601","1445902598741","20151027_083459","-0.014"
"2015/10/27 08:34:59","4","-0.007","10.162","2533","139.936146","patrol02","37.521602","1445902598842","20151027_083459","0.044"
"2015/10/27 08:34:59","4","0.007","10.259","2534","139.936133","patrol02","37.521602","1445902598942","20151027_083459","0.027"
"2015/10/27 08:34:59","4","-0.081","9.974","2535","139.93612","patrol02","37.521602","1445902599039","20151027_083459","-0.081"
"2015/10/27 08:34:59","4","-0.059","9.977","2536","139.936107","patrol02","37.521603","1445902599139","20151027_083459","-0.13"
"2015/10/27 08:34:59","4","0.123","10.345","2537","139.936094","patrol02","37.521603","1445902599240","20151027_083459","-0.054"
"2015/10/27 08:34:59","4","0.019","10.369","2538","139.936081","patrol02","37.521604","1445902599340","20151027_083459","-0.085"
"2015/10/27 08:34:59","4","-0.284","9.999","2539","139.936068","patrol02","37.521604","1445902599441","20151027_083459","-0.217"
"2015/10/27 08:34:59","4","-0.22","10.039","2540","139.936055","patrol02","37.521605","1445902599542","20151027_083459","0.047"
"2015/10/27 08:34:59","4","0.01","10.107","2541","139.936042","patrol02","37.521605","1445902599642","20151027_083459","0.013"
"2015/10/27 08:34:59","4","0.069","10.199","2542","139.936029","patrol02","37.521606","1445902599738","20151027_083459","-0.096"
"2015/10/27 08:34:59","3","-0.008","10.276","2543","139.936016","patrol02","37.521606","1445902599839","20151027_083459","-0.098"
"2015/10/27 08:34:59","3","-0.121","10.297","2544","139.936004","patrol02","37.521607","1445902599939","20151027_083459","-0.107"
"2015/10/27 08:34:59","3","-0.224","10.188","2545","139.935991","patrol02","37.521608","1445902600040","20151027_083459","-0.039"
"2015/10/27 08:34:59","3","-0.25","10.117","2546","139.935979","patrol02","37.521608","1445902600141","20151027_083459","0.065"
"2015/10/27 08:34:59","3","-0.119","10.287","2547","139.935966","patrol02","37.521609","1445902600242","20151027_083459","0.12"
"2015/10/27 08:34:59","3","-0.089","10.312","2548","139.935954","patrol02","37.52161","1445902600342","20151027_083459","0.169"
"2015/10/27 08:34:59","3","-0.147","10.202","2549","139.935942","patrol02","37.521611","1445902600438","20151027_083459","0.152"
"2015/10/27 08:34:59","3","-0.259","10.014","2550","139.935929","patrol02","37.521612","1445902600539","20151027_083459","0.16"
"2015/10/27 08:34:59","3","-0.163","9.943","2551","139.935917","patrol02","37.521612","1445902600639","20151027_083459","0.05"
"2015/10/27 08:34:59","3","-0.101","10.029","2552","139.935904","patrol02","37.521613","1445902600740","20151027_083459","-0.076"
"2015/10/27 08:34:59","4","-0.116","9.967","2553","139.935892","patrol02","37.521614","1445902600841","20151027_083459","-0.11"
"2015/10/27 08:34:59","4","-0.128","9.947","2554","139.935879","patrol02","37.521615","1445902600942","20151027_083459","-0.108"
"2015/10/27 08:34:59","4","-0.142","9.984","2555","139.935867","patrol02","37.521616","1445902601042","20151027_083459","-0.071"
"2015/10/27 08:34:59","4","-0.165","9.932","2556","139.935854","patrol02","37.521617","1445902601138","20151027_083459","-0.072"
"2015/10/27 08:34:59","4","-0.132","9.987","2557","139.935842","patrol02","37.521618","1445902601239","20151027_083459","-0.066"
"2015/10/27 08:34:59","4","-0.132","10.104","2558","139.935829","patrol02","37.521619","1445902601339","20151027_083459","-0.026"
"2015/10/27 08:34:59","4","-0.165","10.129","2559","139.935816","patrol02","37.52162","1445902601440","20151027_083459","0.004"
"2015/10/27 08:34:59","4","-0.118","10.19","2560","139.935804","patrol02","37.521621","1445902601541","20151027_083459","0.033"
"2015/10/27 08:34:59","4","-0.161","10.086","2561","139.935791","patrol02","37.521622","1445902601641","20151027_083459","-0.046"
"2015/10/27 08:34:59","4","-0.185","10.059","2562","139.935778","patrol02","37.521623","1445902601742","20151027_083459","-0.104"
"2015/10/27 08:34:59","3","-0.227","9.948","2563","139.935766","patrol02","37.521624","1445902601838","20151027_083459","-0.116"
"2015/10/27 08:34:59","3","-0.217","9.946","2564","139.935754","patrol02","37.521625","1445902601939","20151027_083459","-0.03"
"2015/10/27 08:34:59","3","-0.18","9.955","2565","139.935742","patrol02","37.521627","1445902602039","20151027_083459","-0.075"
"2015/10/27 08:34:59","3","-0.141","10.053","2566","139.935731","patrol02","37.521628","1445902602140","20151027_083459","-0.003"
"2015/10/27 08:34:59","3","-0.134","10.138","2567","139.935719","patrol02","37.52163","1445902602241","20151027_083459","0.019"
"2015/10/27 08:34:59","3","-0.175","10.127","2568","139.935707","patrol02","37.521631","1445902602342","20151027_083459","0.035"
"2015/10/27 08:34:59","3","-0.192","10.153","2569","139.935695","patrol02","37.521632","1445902602442","20151027_083459","0.041"
"2015/10/27 08:34:59","3","-0.159","10.294","2570","139.935684","patrol02","37.521634","1445902602538","20151027_083459","0.053"
"2015/10/27 08:34:59","3","-0.147","10.214","2571","139.935673","patrol02","37.521635","1445902602639","20151027_083459","0.042"
"2015/10/27 08:34:59","3","-0.166","10.051","2572","139.935661","patrol02","37.521637","1445902602739","20151027_083459","0.017"
"2015/10/27 08:34:59","4","-0.163","10.033","2573","139.935649","patrol02","37.521638","1445902602840","20151027_083459","-0.004"
"2015/10/27 08:34:59","4","-0.189","10.023","2574","139.935636","patrol02","37.521639","1445902602941","20151027_083459","0.041"
"2015/10/27 08:34:59","4","-0.18","10.213","2575","139.935623","patrol02","37.52164","1445902603041","20151027_083459","0.146"
"2015/10/27 08:34:59","4","-0.151","10.28","2576","139.93561","patrol02","37.521641","1445902603142","20151027_083459","0.05"
"2015/10/27 08:34:59","4","-0.182","10.236","2577","139.935597","patrol02","37.521642","1445902603238","20151027_083459","0.044"
"2015/10/27 08:34:59","4","-0.183","10.022","2578","139.935584","patrol02","37.521642","1445902603338","20151027_083459","0.032"
"2015/10/27 08:34:59","4","-0.169","9.995","2579","139.935571","patrol02","37.521643","1445902603439","20151027_083459","-0.057"
"2015/10/27 08:34:59","4","-0.143","10.024","2580","139.935558","patrol02","37.521644","1445902603540","20151027_083459","-0.085"
"2015/10/27 08:34:59","4","-0.139","10.097","2581","139.935544","patrol02","37.521645","1445902603640","20151027_083459","0.016"
"2015/10/27 08:34:59","4","-0.155","10.071","2582","139.935531","patrol02","37.521646","1445902603741","20151027_083459","0.041"
"2015/10/27 08:34:59","3","-0.169","10.169","2583","139.935518","patrol02","37.521647","1445902603842","20151027_083459","0.047"
"2015/10/27 08:34:59","3","-0.151","10.057","2584","139.935505","patrol02","37.521648","1445902603938","20151027_083459","-0.025"
"2015/10/27 08:34:59","3","-0.157","10.101","2585","139.935492","patrol02","37.521649","1445902604038","20151027_083459","0.07"
"2015/10/27 08:34:59","3","-0.146","10.161","2586","139.935478","patrol02","37.52165","1445902604139","20151027_083459","0.057"
"2015/10/27 08:34:59","3","-0.2","10.096","2587","139.935465","patrol02","37.521651","1445902604240","20151027_083459","0.147"
"2015/10/27 08:34:59","3","-0.204","10.023","2588","139.935451","patrol02","37.521651","1445902604340","20151027_083459","0.101"
"2015/10/27 08:34:59","3","-0.148","10.154","2589","139.935437","patrol02","37.521652","1445902604441","20151027_083459","0.12"
"2015/10/27 08:34:59","3","-0.184","10.056","2590","139.935424","patrol02","37.521653","1445902604542","20151027_083459","0.151"
"2015/10/27 08:34:59","3","-0.231","10.046","2591","139.935411","patrol02","37.521654","1445902604638","20151027_083459","0.178"
"2015/10/27 08:34:59","3","-0.168","10.216","2592","139.935398","patrol02","37.521655","1445902604738","20151027_083459","0.204"
"2015/10/27 08:34:59","3","-0.137","10.179","2593","139.935384","patrol02","37.521656","1445902604839","20151027_083459","0.184"
"2015/10/27 08:34:59","3","-0.132","10.087","2594","139.935371","patrol02","37.521656","1445902604940","20151027_083459","0.217"
"2015/10/27 08:34:59","3","-0.074","10.182","2595","139.935357","patrol02","37.521657","1445902605040","20151027_083459","0.234"
"2015/10/27 08:34:59","3","-0.091","10.178","2596","139.935344","patrol02","37.521657","1445902605141","20151027_083459","0.285"
"2015/10/27 08:34:59","3","-0.072","10.104","2597","139.935331","patrol02","37.521658","1445902605242","20151027_083459","0.204"
"2015/10/27 08:34:59","3","0.006","10.153","2598","139.935317","patrol02","37.521658","1445902605343","20151027_083459","0.158"
"2015/10/27 08:34:59","3","-0.031","10.066","2599","139.935304","patrol02","37.521658","1445902605438","20151027_083459","0.162"
"2015/10/27 08:34:59","3","-0.063","10.02","2600","139.935291","patrol02","37.521659","1445902605539","20151027_083459","0.161"
"2015/10/27 08:34:59","3","-0.026","9.984","2601","139.935278","patrol02","37.521659","1445902605640","20151027_083459","0.069"
"2015/10/27 08:34:59","3","0.02","10.046","2602","139.935264","patrol02","37.52166","1445902605740","20151027_083459","0.124"
"2015/10/27 08:34:59","3","0.09","10.137","2603","139.935251","patrol02","37.52166","1445902605841","20151027_083459","0.132"
"2015/10/27 08:34:59","3","0.021","9.979","2604","139.935238","patrol02","37.521661","1445902605942","20151027_083459","0.091"
"2015/10/27 08:34:59","3","-0.009","9.941","2605","139.935226","patrol02","37.521662","1445902606042","20151027_083459","0.071"
"2015/10/27 08:34:59","3","0.079","10.077","2606","139.935213","patrol02","37.521662","1445902606138","20151027_083459","0.125"
"2015/10/27 08:34:59","3","0.077","10.043","2607","139.935201","patrol02","37.521663","1445902606239","20151027_083459","0.061"
"2015/10/27 08:34:59","3","0.057","10.033","2608","139.935188","patrol02","37.521664","1445902606340","20151027_083459","-0.003"
"2015/10/27 08:34:59","3","0.01","10.196","2609","139.935175","patrol02","37.521665","1445902606440","20151027_083459","0.078"
"2015/10/27 08:34:59","3","0.007","10.194","2610","139.935163","patrol02","37.521666","1445902606541","20151027_083459","0.047"
"2015/10/27 08:34:59","3","-0.005","10.185","2611","139.93515","patrol02","37.521666","1445902606642","20151027_083459","0.082"
"2015/10/27 08:34:59","3","0.032","10.12","2612","139.935137","patrol02","37.521667","1445902606742","20151027_083459","0.01"
"2015/10/27 08:34:59","3","0.054","10.056","2613","139.935125","patrol02","37.521668","1445902606838","20151027_083459","-0.005"
"2015/10/27 08:34:59","3","0.074","10.058","2614","139.935113","patrol02","37.521669","1445902606939","20151027_083459","0.024"
"2015/10/27 08:34:59","3","0.08","10.084","2615","139.935101","patrol02","37.521669","1445902607039","20151027_083459","-0.069"
"2015/10/27 08:34:59","3","0.014","9.925","2616","139.935089","patrol02","37.52167","1445902607140","20151027_083459","0.036"
"2015/10/27 08:34:59","3","0.022","9.833","2617","139.935076","patrol02","37.521671","1445902607241","20151027_083459","-0.036"
"2015/10/27 08:34:59","3","0.053","9.661","2618","139.935064","patrol02","37.521672","1445902607342","20151027_083459","-0.224"
"2015/10/27 08:34:59","3","0.06","10.066","2619","139.935052","patrol02","37.521672","1445902607442","20151027_083459","-0.035"
"2015/10/27 08:34:59","3","0.179","10.078","2620","139.93504","patrol02","37.521673","1445902607538","20151027_083459","-0.092"
"2015/10/27 08:34:59","3","0.171","10.181","2621","139.935028","patrol02","37.521674","1445902607639","20151027_083459","-0.154"
"2015/10/27 08:34:59","3","0.072","10.233","2622","139.935016","patrol02","37.521674","1445902607739","20151027_083459","-0.074"
"2015/10/27 08:34:59","3","-0.012","10.277","2623","139.935004","patrol02","37.521675","1445902607840","20151027_083459","0.048"
"2015/10/27 08:34:59","3","0.055","10.033","2624","139.934991","patrol02","37.521675","1445902607941","20151027_083459","0.01"
"2015/10/27 08:34:59","3","0.115","10.168","2625","139.934979","patrol02","37.521676","1445902608041","20151027_083459","0.138"
"2015/10/27 08:34:59","3","0.164","10.175","2626","139.934966","patrol02","37.521676","1445902608142","20151027_083459","0.086"
"2015/10/27 08:34:59","3","0.12","10.056","2627","139.934954","patrol02","37.521676","1445902608238","20151027_083459","0.003"
"2015/10/27 08:34:59","3","0.088","10.058","2628","139.934942","patrol02","37.521676","1445902608339","20151027_083459","0.08"
"2015/10/27 08:34:59","3","0.123","10.089","2629","139.934929","patrol02","37.521677","1445902608439","20151027_083459","-0.009"
"2015/10/27 08:34:59","3","0.216","10.299","2630","139.934917","patrol02","37.521677","1445902608540","20151027_083459","0.036"
"2015/10/27 08:34:59","3","0.231","10.222","2631","139.934904","patrol02","37.521677","1445902608641","20151027_083459","0.008"
"2015/10/27 08:34:59","3","0.225","10.152","2632","139.934892","patrol02","37.521678","1445902608741","20151027_083459","-0.046"
"2015/10/27 08:34:59","3","0.268","10.143","2633","139.934879","patrol02","37.521678","1445902608842","20151027_083459","-0.116"
"2015/10/27 08:34:59","3","0.214","10.002","2634","139.934868","patrol02","37.521679","1445902608938","20151027_083459","-0.125"
"2015/10/27 08:34:59","3","0.28","10.014","2635","139.934857","patrol02","37.52168","1445902609038","20151027_083459","-0.275"
"2015/10/27 08:34:59","3","0.28","10.111","2636","139.934845","patrol02","37.521681","1445902609139","20151027_083459","-0.233"
"2015/10/27 08:34:59","3","0.267","9.938","2637","139.934834","patrol02","37.521682","1445902609240","20151027_083459","-0.392"
"2015/10/27 08:34:59","3","0.29","9.915","2638","139.934822","patrol02","37.521683","1445902609341","20151027_083459","-0.355"
"2015/10/27 08:34:59","3","0.322","10.024","2639","139.93481","patrol02","37.521683","1445902609441","20151027_083459","-0.25"
"2015/10/27 08:34:59","3","0.42","10.051","2640","139.934799","patrol02","37.521684","1445902609542","20151027_083459","-0.263"
"2015/10/27 08:34:59","3","0.529","10.085","2641","139.934788","patrol02","37.521685","1445902609638","20151027_083459","-0.208"
"2015/10/27 08:34:59","3","0.578","10.102","2642","139.934777","patrol02","37.521686","1445902609738","20151027_083459","-0.167"
"2015/10/27 08:34:59","3","0.611","10.112","2643","139.934765","patrol02","37.521687","1445902609839","20151027_083459","-0.304"
"2015/10/27 08:34:59","3","0.65","10.028","2644","139.934754","patrol02","37.521687","1445902609940","20151027_083459","-0.293"
"2015/10/27 08:34:59","3","0.682","10.123","2645","139.934743","patrol02","37.521688","1445902610041","20151027_083459","-0.253"
"2015/10/27 08:34:59","3","0.695","10.145","2646","139.934733","patrol02","37.521688","1445902610141","20151027_083459","-0.125"
"2015/10/27 08:34:59","3","0.674","9.965","2647","139.934722","patrol02","37.521688","1445902610242","20151027_083459","-0.23"
"2015/10/27 08:34:59","3","0.665","10.019","2648","139.934712","patrol02","37.521688","1445902610338","20151027_083459","-0.195"
"2015/10/27 08:34:59","3","0.709","10.014","2649","139.934701","patrol02","37.521689","1445902610438","20151027_083459","-0.294"
"2015/10/27 08:34:59","3","0.733","10.108","2650","139.93469","patrol02","37.521689","1445902610539","20151027_083459","-0.151"
"2015/10/27 08:34:59","3","0.682","10.057","2651","139.93468","patrol02","37.521689","1445902610640","20151027_083459","-0.123"
"2015/10/27 08:34:59","3","0.711","10.151","2652","139.934669","patrol02","37.52169","1445902610740","20151027_083459","-0.167"
"2015/10/27 08:34:59","3","0.719","10.164","2653","139.934658","patrol02","37.52169","1445902610841","20151027_083459","-0.13"
"2015/10/27 08:34:59","3","0.756","10.085","2654","139.934649","patrol02","37.52169","1445902610942","20151027_083459","-0.191"
"2015/10/27 08:34:59","3","0.717","9.908","2655","139.934639","patrol02","37.521691","1445902611038","20151027_083459","-0.233"
"2015/10/27 08:34:59","3","0.724","9.984","2656","139.93463","patrol02","37.521691","1445902611138","20151027_083459","-0.268"
"2015/10/27 08:34:59","3","0.781","10.053","2657","139.93462","patrol02","37.521692","1445902611239","20151027_083459","-0.19"
"2015/10/27 08:34:59","3","0.797","10.166","2658","139.934611","patrol02","37.521692","1445902611340","20151027_083459","-0.131"
"2015/10/27 08:34:59","3","0.778","10.073","2659","139.934602","patrol02","37.521692","1445902611440","20151027_083459","-0.149"
"2015/10/27 08:34:59","3","0.799","10.061","2660","139.934592","patrol02","37.521693","1445902611541","20151027_083459","-0.17"
"2015/10/27 08:34:59","3","0.909","10.112","2661","139.934583","patrol02","37.521693","1445902611642","20151027_083459","-0.201"
"2015/10/27 08:34:59","3","0.978","10.036","2662","139.934573","patrol02","37.521694","1445902611738","20151027_083459","-0.259"
"2015/10/27 08:34:59","3","1.022","9.964","2663","139.934564","patrol02","37.521694","1445902611838","20151027_083459","-0.288"
"2015/10/27 08:34:59","3","1.028","10.094","2664","139.934555","patrol02","37.521694","1445902611939","20151027_083459","-0.222"
"2015/10/27 08:34:59","3","1.02","10.042","2665","139.934546","patrol02","37.521694","1445902612040","20151027_083459","-0.221"
"2015/10/27 08:34:59","3","1.057","10.047","2666","139.934538","patrol02","37.521694","1445902612140","20151027_083459","-0.241"
"2015/10/27 08:34:59","3","1.102","10.037","2667","139.934529","patrol02","37.521694","1445902612241","20151027_083459","-0.259"
"2015/10/27 08:34:59","3","1.12","10.053","2668","139.93452","patrol02","37.521695","1445902612342","20151027_083459","-0.228"
"2015/10/27 08:34:59","3","1.106","9.944","2669","139.934511","patrol02","37.521695","1445902612442","20151027_083459","-0.227"
"2015/10/27 08:34:59","3","1.153","10.085","2670","139.934503","patrol02","37.521695","1445902612538","20151027_083459","-0.217"
"2015/10/27 08:34:59","3","1.156","10.092","2671","139.934494","patrol02","37.521695","1445902612639","20151027_083459","-0.145"
"2015/10/27 08:34:59","3","1.238","10.156","2672","139.934485","patrol02","37.521695","1445902612740","20151027_083459","-0.143"
"2015/10/27 08:34:59","4","1.285","10.203","2673","139.934477","patrol02","37.521695","1445902612840","20151027_083459","-0.083"
"2015/10/27 08:34:59","4","1.305","10.071","2674","139.93447","patrol02","37.521695","1445902612941","20151027_083459","-0.085"
"2015/10/27 08:34:59","4","1.348","10.059","2675","139.934463","patrol02","37.521695","1445902613042","20151027_083459","-0.182"
"2015/10/27 08:34:59","4","1.364","10.126","2676","139.934456","patrol02","37.521695","1445902613142","20151027_083459","-0.161"
"2015/10/27 08:34:59","4","1.41","10.174","2677","139.934449","patrol02","37.521695","1445902613238","20151027_083459","-0.124"
"2015/10/27 08:34:59","4","1.429","10.117","2678","139.934442","patrol02","37.521696","1445902613339","20151027_083459","-0.047"
"2015/10/27 08:34:59","4","1.453","9.998","2679","139.934435","patrol02","37.521696","1445902613439","20151027_083459","-0.154"
"2015/10/27 08:34:59","4","1.533","10.115","2680","139.934428","patrol02","37.521696","1445902613540","20151027_083459","-0.135"
"2015/10/27 08:34:59","4","1.602","10.135","2681","139.934422","patrol02","37.521696","1445902613641","20151027_083459","-0.053"
"2015/10/27 08:34:59","4","1.606","10.148","2682","139.934415","patrol02","37.521696","1445902613742","20151027_083459","-0.066"
"2015/10/27 08:34:59","4","1.637","10.184","2683","139.934408","patrol02","37.521696","1445902613842","20151027_083459","-0.119"
"2015/10/27 08:34:59","4","1.562","10.016","2684","139.934404","patrol02","37.521697","1445902613938","20151027_083459","-0.088"
"2015/10/27 08:34:59","4","1.584","10.014","2685","139.9344","patrol02","37.521697","1445902614039","20151027_083459","-0.096"
"2015/10/27 08:34:59","4","1.587","10.001","2686","139.934396","patrol02","37.521698","1445902614139","20151027_083459","-0.172"
"2015/10/27 08:34:59","4","1.592","10.152","2687","139.934392","patrol02","37.521698","1445902614240","20151027_083459","-0.055"
"2015/10/27 08:34:59","4","1.563","10.049","2688","139.934388","patrol02","37.521699","1445902614341","20151027_083459","-0.068"
"2015/10/27 08:34:59","4","1.622","10.217","2689","139.934384","patrol02","37.5217","1445902614441","20151027_083459","-0.018"
"2015/10/27 08:34:59","4","1.6","10.222","2690","139.93438","patrol02","37.5217","1445902614542","20151027_083459","0.023"
"2015/10/27 08:34:59","4","1.583","10.213","2691","139.934376","patrol02","37.521701","1445902614638","20151027_083459","0.089"
"2015/10/27 08:34:59","4","1.596","10.116","2692","139.934372","patrol02","37.521701","1445902614739","20151027_083459","-0.056"
"2015/10/27 08:34:59","3","1.587","10.093","2693","139.934368","patrol02","37.521702","1445902614839","20151027_083459","-0.053"
"2015/10/27 08:34:59","3","1.584","10.153","2694","139.934365","patrol02","37.521702","1445902614940","20151027_083459","-0.104"
"2015/10/27 08:34:59","3","1.56","10.136","2695","139.934362","patrol02","37.521702","1445902615041","20151027_083459","-0.025"
"2015/10/27 08:34:59","3","1.556","10.102","2696","139.934359","patrol02","37.521702","1445902615141","20151027_083459","-0.018"
"2015/10/27 08:34:59","3","1.542","10.198","2697","139.934357","patrol02","37.521702","1445902615242","20151027_083459","0.026"
"2015/10/27 08:34:59","3","1.504","10.171","2698","139.934354","patrol02","37.521703","1445902615338","20151027_083459","-0.053"
"2015/10/27 08:34:59","3","1.493","10.104","2699","139.934351","patrol02","37.521703","1445902615438","20151027_083459","-0.072"
"2015/10/27 08:34:59","3","1.424","10.101","2700","139.934348","patrol02","37.521703","1445902615539","20151027_083459","0.031"
"2015/10/27 08:34:59","3","1.362","10.146","2701","139.934345","patrol02","37.521703","1445902615640","20151027_083459","0.117"
"2015/10/27 08:34:59","3","1.377","10.138","2702","139.934343","patrol02","37.521703","1445902615741","20151027_083459","0.034"
"2015/10/27 08:34:59","3","1.369","10.271","2703","139.93434","patrol02","37.521703","1445902615841","20151027_083459","0.018"
"2015/10/27 08:34:59","3","1.301","10.151","2704","139.934339","patrol02","37.521703","1445902615942","20151027_083459","0.012"
"2015/10/27 08:34:59","3","1.292","10.054","2705","139.934338","patrol02","37.521704","1445902616038","20151027_083459","-0.045"
"2015/10/27 08:34:59","3","1.25","10.134","2706","139.934337","patrol02","37.521704","1445902616138","20151027_083459","-0.021"
"2015/10/27 08:34:59","3","1.207","10.159","2707","139.934336","patrol02","37.521704","1445902616239","20151027_083459","-0.002"
"2015/10/27 08:34:59","3","1.18","10.128","2708","139.934334","patrol02","37.521705","1445902616340","20151027_083459","-0.028"
"2015/10/27 08:34:59","3","1.219","10.195","2709","139.934333","patrol02","37.521705","1445902616440","20151027_083459","-0.014"
"2015/10/27 08:34:59","3","1.176","10.103","2710","139.934332","patrol02","37.521705","1445902616541","20151027_083459","-0.036"
"2015/10/27 08:34:59","3","1.135","10.126","2711","139.934331","patrol02","37.521705","1445902616642","20151027_083459","-0.025"
"2015/10/27 08:34:59","3","1.095","10.167","2712","139.93433","patrol02","37.521706","1445902616738","20151027_083459","0.018"
"2015/10/27 08:34:59","3","0.997","10.094","2713","139.934329","patrol02","37.521706","1445902616838","20151027_083459","0.034"
"2015/10/27 08:34:59","3","0.885","10.064","2714","139.934329","patrol02","37.521706","1445902616939","20151027_083459","-0.014"
"2015/10/27 08:34:59","3","0.842","10.11","2715","139.934329","patrol02","37.521705","1445902617040","20151027_083459","-0.044"
"2015/10/27 08:34:59","3","0.788","10.077","2716","139.934328","patrol02","37.521705","1445902617140","20151027_083459","-0.015"
"2015/10/27 08:34:59","3","0.751","10.125","2717","139.934328","patrol02","37.521704","1445902617241","20151027_083459","0.027"
"2015/10/27 08:34:59","3","0.701","10.123","2718","139.934328","patrol02","37.521704","1445902617342","20151027_083459","0.011"
"2015/10/27 08:34:59","3","0.665","10.112","2719","139.934328","patrol02","37.521704","1445902617438","20151027_083459","-0.006"
"2015/10/27 08:34:59","3","0.595","10.109","2720","139.934328","patrol02","37.521703","1445902617538","20151027_083459","-0.018"
"2015/10/27 08:34:59","3","0.506","10.113","2721","139.934327","patrol02","37.521703","1445902617639","20151027_083459","-0.042"
"2015/10/27 08:34:59","3","0.514","10.228","2722","139.934327","patrol02","37.521702","1445902617740","20151027_083459","0.011"
"2015/10/27 08:34:59","3","0.572","10.284","2723","139.934327","patrol02","37.521702","1445902617840","20151027_083459","0.058"
"2015/10/27 08:34:59","3","0.614","10.231","2724","139.934325","patrol02","37.521702","1445902617941","20151027_083459","0.117"
"2015/10/27 08:34:59","3","0.617","10.156","2725","139.934324","patrol02","37.521702","1445902618042","20151027_083459","0.102"
"2015/10/27 08:34:59","3","0.387","10.202","2726","139.934322","patrol02","37.521702","1445902618142","20151027_083459","0.052"
"2015/10/27 08:34:59","3","0.081","10.182","2727","139.934321","patrol02","37.521702","1445902618238","20151027_083459","0.05"
"2015/10/27 08:34:59","3","-0.145","10.112","2728","139.934319","patrol02","37.521703","1445902618339","20151027_083459","0.025"
"2015/10/27 08:34:59","3","-0.254","10.104","2729","139.934318","patrol02","37.521703","1445902618440","20151027_083459","0.008"
"2015/10/27 08:34:59","3","-0.32","10.174","2730","139.934316","patrol02","37.521703","1445902618540","20151027_083459","0.047"
"2015/10/27 08:34:59","3","-0.354","10.159","2731","139.934315","patrol02","37.521703","1445902618641","20151027_083459","0.049"
"2015/10/27 08:34:59","3","-0.39","10.126","2732","139.934313","patrol02","37.521703","1445902618742","20151027_083459","0.022"
"2015/10/27 08:34:59","3","-0.44","10.134","2733","139.934312","patrol02","37.521703","1445902618842","20151027_083459","0.035"
"2015/10/27 08:34:59","3","-0.44","10.132","2734","139.93431","patrol02","37.521703","1445902618938","20151027_083459","0.028"
"2015/10/27 08:34:59","3","-0.474","10.101","2735","139.934309","patrol02","37.521703","1445902619039","20151027_083459","0.005"
"2015/10/27 08:34:59","3","-0.519","10.112","2736","139.934307","patrol02","37.521703","1445902619140","20151027_083459","0.014"
"2015/10/27 08:34:59","3","-0.586","10.142","2737","139.934306","patrol02","37.521703","1445902619240","20151027_083459","0.066"
"2015/10/27 08:34:59","3","-0.649","10.174","2738","139.934304","patrol02","37.521702","1445902619341","20151027_083459","0.117"
"2015/10/27 08:34:59","3","-0.727","10.153","2739","139.934302","patrol02","37.521702","1445902619442","20151027_083459","0.118"
"2015/10/27 08:34:59","3","-0.82","10.073","2740","139.934301","patrol02","37.521702","1445902619542","20151027_083459","0.069"
"2015/10/27 08:34:59","3","-0.946","10.066","2741","139.934299","patrol02","37.521702","1445902619638","20151027_083459","0.075"
"2015/10/27 08:34:59","3","-1.015","10.117","2742","139.934298","patrol02","37.521702","1445902619739","20151027_083459","0.062"
"2015/10/27 08:34:59","3","-1.019","10.192","2743","139.934296","patrol02","37.521702","1445902619839","20151027_083459","0.053"
"2015/10/27 08:34:59","3","-1.097","10.112","2744","139.934293","patrol02","37.521702","1445902619940","20151027_083459","0.109"
"2015/10/27 08:34:59","3","-1.126","10.082","2745","139.93429","patrol02","37.521701","1445902620041","20151027_083459","0.183"
"2015/10/27 08:34:59","3","-1.066","10.196","2746","139.934288","patrol02","37.521701","1445902620142","20151027_083459","0.203"
"2015/10/27 08:34:59","3","-0.99","10.166","2747","139.934285","patrol02","37.5217","1445902620242","20151027_083459","0.128"
"2015/10/27 08:34:59","3","-0.986","10.159","2748","139.934282","patrol02","37.5217","1445902620338","20151027_083459","0.092"
"2015/10/27 08:34:59","3","-0.937","10.083","2749","139.93428","patrol02","37.5217","1445902620439","20151027_083459","0.125"
"2015/10/27 08:34:59","3","-0.974","10.03","2750","139.934277","patrol02","37.521699","1445902620539","20151027_083459","0.166"
"2015/10/27 08:34:59","3","-1.064","10.133","2751","139.934274","patrol02","37.521699","1445902620640","20151027_083459","0.234"
"2015/10/27 08:34:59","3","-0.91","10.141","2752","139.934272","patrol02","37.521698","1445902620741","20151027_083459","0.302"
"2015/10/27 08:34:59","3","-0.81","10.062","2753","139.934269","patrol02","37.521698","1445902620842","20151027_083459","0.344"
"2015/10/27 08:34:59","3","-1.072","10.021","2754","139.934265","patrol02","37.521698","1445902620942","20151027_083459","0.273"
"2015/10/27 08:34:59","3","-1.215","10.153","2755","139.934261","patrol02","37.521697","1445902621038","20151027_083459","0.249"
"2015/10/27 08:34:59","3","-1.503","10.132","2756","139.934257","patrol02","37.521697","1445902621139","20151027_083459","0.223"
"2015/10/27 08:34:59","3","-1.836","9.808","2757","139.934253","patrol02","37.521696","1445902621239","20151027_083459","0.197"
"2015/10/27 08:34:59","3","-1.831","9.823","2758","139.934249","patrol02","37.521696","1445902621340","20151027_083459","0.286"
"2015/10/27 08:34:59","3","-1.7","10.136","2759","139.934245","patrol02","37.521696","1445902621441","20151027_083459","0.397"
"2015/10/27 08:34:59","3","-1.63","10.178","2760","139.934241","patrol02","37.521695","1445902621541","20151027_083459","0.439"
"2015/10/27 08:34:59","3","-1.644","10.088","2761","139.934237","patrol02","37.521695","1445902621642","20151027_083459","0.578"
"2015/10/27 08:34:59","3","-1.59","10.127","2762","139.934233","patrol02","37.521694","1445902621738","20151027_083459","0.815"
"2015/10/27 08:34:59","3","-1.518","10.136","2763","139.934229","patrol02","37.521694","1445902621838","20151027_083459","0.97"
"2015/10/27 08:34:59","3","-1.457","10.108","2764","139.934224","patrol02","37.521693","1445902621940","20151027_083459","0.938"
"2015/10/27 08:34:59","3","-1.331","10.098","2765","139.934219","patrol02","37.521692","1445902622040","20151027_083459","1.029"
"2015/10/27 08:34:59","3","-1.443","9.994","2766","139.934214","patrol02","37.521691","1445902622141","20151027_083459","1.24"
"2015/10/27 08:34:59","3","-1.418","10.096","2767","139.93421","patrol02","37.52169","1445902622241","20151027_083459","1.406"
"2015/10/27 08:34:59","3","-1.344","10.082","2768","139.934205","patrol02","37.521689","1445902622342","20151027_083459","1.667"
"2015/10/27 08:34:59","3","-1.228","10.079","2769","139.9342","patrol02","37.521688","1445902622438","20151027_083459","1.879"
"2015/10/27 08:34:59","3","-1.138","10.103","2770","139.934195","patrol02","37.521687","1445902622538","20151027_083459","1.906"
"2015/10/27 08:34:59","3","-1.045","10.109","2771","139.93419","patrol02","37.521686","1445902622639","20151027_083459","1.888"
"2015/10/27 08:34:59","3","-0.945","10.234","2772","139.934186","patrol02","37.521685","1445902622740","20151027_083459","1.985"
"2015/10/27 08:34:59","3","-0.826","10.116","2773","139.934181","patrol02","37.521684","1445902622841","20151027_083459","2.142"
"2015/10/27 08:34:59","3","-0.719","10.059","2774","139.934177","patrol02","37.52168","1445902622941","20151027_083459","2.385"
"2015/10/27 08:34:59","3","-0.651","10.105","2775","139.934172","patrol02","37.521677","1445902623042","20151027_083459","2.482"
"2015/10/27 08:34:59","3","-0.593","10.264","2776","139.934168","patrol02","37.521673","1445902623138","20151027_083459","2.429"
"2015/10/27 08:34:59","3","-0.616","10.212","2777","139.934164","patrol02","37.52167","1445902623238","20151027_083459","2.573"
"2015/10/27 08:34:59","3","-0.63","9.968","2778","139.93416","patrol02","37.521666","1445902623339","20151027_083459","2.696"
"2015/10/27 08:34:59","3","-0.613","10.041","2779","139.934156","patrol02","37.521662","1445902623440","20151027_083459","2.704"
"2015/10/27 08:34:59","3","-0.524","10.167","2780","139.934151","patrol02","37.521659","1445902623540","20151027_083459","2.7"
"2015/10/27 08:34:59","3","-0.512","10.182","2781","139.934147","patrol02","37.521655","1445902623641","20151027_083459","2.724"
"2015/10/27 08:34:59","3","-0.511","10.129","2782","139.934143","patrol02","37.521651","1445902623742","20151027_083459","2.626"
"2015/10/27 08:34:59","3","-0.506","10.111","2783","139.934139","patrol02","37.521648","1445902623838","20151027_083459","2.349"
"2015/10/27 08:34:59","3","-0.551","10.188","2784","139.934136","patrol02","37.521644","1445902623938","20151027_083459","2.24"
"2015/10/27 08:34:59","3","-0.628","10.17","2785","139.934133","patrol02","37.521641","1445902624039","20151027_083459","2.291"
"2015/10/27 08:34:59","3","-0.628","10.183","2786","139.93413","patrol02","37.521637","1445902624140","20151027_083459","2.153"
"2015/10/27 08:34:59","3","-0.509","10.351","2787","139.934126","patrol02","37.521633","1445902624240","20151027_083459","2.236"
"2015/10/27 08:34:59","3","-0.599","10.205","2788","139.934123","patrol02","37.521629","1445902624341","20151027_083459","2.391"
"2015/10/27 08:34:59","3","-0.646","10.068","2789","139.93412","patrol02","37.521626","1445902624442","20151027_083459","2.421"
"2015/10/27 08:34:59","3","-0.58","10.161","2790","139.934117","patrol02","37.521622","1445902624542","20151027_083459","2.215"
"2015/10/27 08:34:59","3","-0.633","10.252","2791","139.934114","patrol02","37.521618","1445902624638","20151027_083459","2.129"
"2015/10/27 08:34:59","3","-0.704","10.134","2792","139.934111","patrol02","37.521615","1445902624739","20151027_083459","2.283"
"2015/10/27 08:34:59","4","-0.55","10.089","2793","139.934108","patrol02","37.521611","1445902624840","20151027_083459","2.663"
"2015/10/27 08:34:59","4","-0.565","9.894","2794","139.934108","patrol02","37.521604","1445902624940","20151027_083459","2.737"
"2015/10/27 08:34:59","4","-0.675","10.031","2795","139.934108","patrol02","37.521597","1445902625041","20151027_083459","2.65"
"2015/10/27 08:34:59","4","-0.652","10.241","2796","139.934108","patrol02","37.521591","1445902625142","20151027_083459","2.542"
"2015/10/27 08:34:59","4","-0.57","10.223","2797","139.934108","patrol02","37.521584","1445902625242","20151027_083459","2.501"
"2015/10/27 08:34:59","4","-0.584","10.17","2798","139.934108","patrol02","37.521578","1445902625338","20151027_083459","2.559"
"2015/10/27 08:34:59","4","-0.675","10.015","2799","139.934109","patrol02","37.521571","1445902625439","20151027_083459","2.535"
"2015/10/27 08:34:59","4","-0.69","9.897","2800","139.934109","patrol02","37.521565","1445902625539","20151027_083459","2.291"
"2015/10/27 08:34:59","4","-0.826","10.054","2801","139.934109","patrol02","37.521558","1445902625640","20151027_083459","2.243"
"2015/10/27 08:34:59","4","-0.883","9.809","2802","139.934109","patrol02","37.521551","1445902625741","20151027_083459","2.013"
"2015/10/27 08:34:59","4","-0.704","9.938","2803","139.934109","patrol02","37.521545","1445902625842","20151027_083459","1.582"
"2015/10/27 08:34:59","4","-0.661","10.358","2804","139.934108","patrol02","37.521538","1445902625942","20151027_083459","1.306"
"2015/10/27 08:34:59","4","-0.781","10.399","2805","139.934108","patrol02","37.521532","1445902626038","20151027_083459","1.078"
"2015/10/27 08:34:59","4","-0.948","10.232","2806","139.934107","patrol02","37.521525","1445902626139","20151027_083459","0.832"
"2015/10/27 08:34:59","4","-1.179","10.206","2807","139.934106","patrol02","37.521518","1445902626239","20151027_083459","0.509"
"2015/10/27 08:34:59","4","-1.185","10.3","2808","139.934105","patrol02","37.521511","1445902626340","20151027_083459","0.193"
"2015/10/27 08:34:59","4","-1.172","10.359","2809","139.934104","patrol02","37.521504","1445902626441","20151027_083459","0.063"
"2015/10/27 08:34:59","4","-1.144","10.261","2810","139.934103","patrol02","37.521498","1445902626542","20151027_083459","-0.115"
"2015/10/27 08:34:59","4","-1.206","10.156","2811","139.934102","patrol02","37.521491","1445902626642","20151027_083459","-0.263"
"2015/10/27 08:34:59","4","-1.14","10.15","2812","139.934101","patrol02","37.521484","1445902626738","20151027_083459","-0.42"
"2015/10/27 08:34:59","4","-1.179","10.046","2813","139.9341","patrol02","37.521478","1445902626839","20151027_083459","-0.526"
"2015/10/27 08:34:59","3","-1.161","10.092","2814","139.934099","patrol02","37.521471","1445902626939","20151027_083459","-0.385"
"2015/10/27 08:34:59","3","-1.122","10.306","2815","139.934098","patrol02","37.521463","1445902627040","20151027_083459","-0.29"
"2015/10/27 08:34:59","3","-1.168","10.295","2816","139.934097","patrol02","37.521456","1445902627141","20151027_083459","-0.115"
"2015/10/27 08:34:59","3","-1.219","10.026","2817","139.934096","patrol02","37.521449","1445902627241","20151027_083459","-0.12"
"2015/10/27 08:34:59","3","-1.228","9.871","2818","139.934095","patrol02","37.521441","1445902627342","20151027_083459","-0.099"
"2015/10/27 08:34:59","3","-1.208","9.899","2819","139.934094","patrol02","37.521434","1445902627438","20151027_083459","-0.136"
"2015/10/27 08:34:59","3","-1.232","9.861","2820","139.934093","patrol02","37.521427","1445902627539","20151027_083459","-0.362"
"2015/10/27 08:34:59","3","-0.93","10.304","2821","139.934092","patrol02","37.52142","1445902627639","20151027_083459","-0.217"
"2015/10/27 08:34:59","3","-0.933","10.297","2822","139.934091","patrol02","37.521412","1445902627740","20151027_083459","0.149"
"2015/10/27 08:34:59","3","-1.113","9.814","2823","139.934089","patrol02","37.521405","1445902627841","20151027_083459","0.089"
"2015/10/27 08:34:59","3","-1.382","9.743","2824","139.934088","patrol02","37.521397","1445902627941","20151027_083459","0.16"
"2015/10/27 08:34:59","3","-1.209","10.045","2825","139.934088","patrol02","37.521389","1445902628042","20151027_083459","0.257"
"2015/10/27 08:34:59","3","-1.057","9.888","2826","139.934087","patrol02","37.521382","1445902628138","20151027_083459","0.226"
"2015/10/27 08:34:59","3","-1.018","10.043","2827","139.934086","patrol02","37.521374","1445902628238","20151027_083459","0.268"
"2015/10/27 08:34:59","3","-1.094","10.313","2828","139.934085","patrol02","37.521366","1445902628339","20151027_083459","0.367"
"2015/10/27 08:34:59","3","-1.085","10.177","2829","139.934084","patrol02","37.521358","1445902628440","20151027_083459","0.286"
"2015/10/27 08:34:59","3","-1.122","10.069","2830","139.934083","patrol02","37.52135","1445902628541","20151027_083459","0.087"
"2015/10/27 08:34:59","3","-1.071","10.093","2831","139.934082","patrol02","37.521342","1445902628641","20151027_083459","0.113"
"2015/10/27 08:34:59","3","-0.995","10.157","2832","139.934081","patrol02","37.521334","1445902628742","20151027_083459","0.016"
"2015/10/27 08:34:59","3","-1.061","10.057","2833","139.93408","patrol02","37.521326","1445902628838","20151027_083459","0.111"
"2015/10/27 08:34:59","3","-1.13","9.935","2834","139.93408","patrol02","37.521318","1445902628938","20151027_083459","0.129"
"2015/10/27 08:34:59","3","-1.161","9.868","2835","139.93408","patrol02","37.52131","1445902629039","20151027_083459","0.063"
"2015/10/27 08:34:59","3","-1.103","10.062","2836","139.934079","patrol02","37.521302","1445902629140","20151027_083459","0.209"
"2015/10/27 08:34:59","3","-0.97","10.059","2837","139.934079","patrol02","37.521293","1445902629241","20151027_083459","0.039"
"2015/10/27 08:34:59","3","-0.965","10.148","2838","139.934079","patrol02","37.521285","1445902629341","20151027_083459","0.061"
"2015/10/27 08:34:59","3","-0.972","10.08","2839","139.934078","patrol02","37.521277","1445902629442","20151027_083459","0.026"
"2015/10/27 08:34:59","3","-1.046","10.011","2840","139.934078","patrol02","37.521269","1445902629538","20151027_083459","-0.089"
"2015/10/27 08:34:59","3","-1.082","10.018","2841","139.934078","patrol02","37.521261","1445902629638","20151027_083459","-0.048"
"2015/10/27 08:34:59","3","-1.058","9.951","2842","139.934077","patrol02","37.521253","1445902629739","20151027_083459","-0.096"
"2015/10/27 08:34:59","3","-1.032","10.171","2843","139.934077","patrol02","37.521244","1445902629840","20151027_083459","0.014"
"2015/10/27 08:34:59","3","-1.001","10.14","2844","139.934077","patrol02","37.521236","1445902629940","20151027_083459","0.0"
"2015/10/27 08:34:59","3","-1.04","10.092","2845","139.934076","patrol02","37.521227","1445902630041","20151027_083459","0.078"
"2015/10/27 08:34:59","3","-1.049","10.12","2846","139.934076","patrol02","37.521218","1445902630142","20151027_083459","0.118"
"2015/10/27 08:34:59","3","-0.881","10.154","2847","139.934075","patrol02","37.521209","1445902630243","20151027_083459","0.086"
"2015/10/27 08:34:59","3","-0.864","10.385","2848","139.934075","patrol02","37.521201","1445902630338","20151027_083459","0.284"
"2015/10/27 08:34:59","3","-0.817","10.117","2849","139.934074","patrol02","37.521192","1445902630439","20151027_083459","-0.038"
"2015/10/27 08:34:59","3","-0.885","9.964","2850","139.934074","patrol02","37.521183","1445902630540","20151027_083459","-0.16"
"2015/10/27 08:34:59","3","-0.857","10.276","2851","139.934073","patrol02","37.521174","1445902630640","20151027_083459","-0.026"
"2015/10/27 08:34:59","3","-0.901","10.001","2852","139.934073","patrol02","37.521165","1445902630741","20151027_083459","-0.131"
"2015/10/27 08:34:59","3","-0.892","10.06","2853","139.934072","patrol02","37.521157","1445902630842","20151027_083459","-0.157"
"2015/10/27 08:34:59","3","-0.811","10.096","2854","139.934071","patrol02","37.521147","1445902630943","20151027_083459","-0.048"
"2015/10/27 08:34:59","3","-0.803","10.129","2855","139.934071","patrol02","37.521139","1445902631038","20151027_083459","0.018"
"2015/10/27 08:34:59","3","-0.705","10.167","2856","139.93407","patrol02","37.521129","1445902631139","20151027_083459","-0.104"
"2015/10/27 08:34:59","3","-0.771","10.252","2857","139.934069","patrol02","37.52112","1445902631240","20151027_083459","-0.1"
"2015/10/27 08:34:59","3","-0.766","10.267","2858","139.934068","patrol02","37.521111","1445902631340","20151027_083459","-0.051"
"2015/10/27 08:34:59","3","-0.748","10.355","2859","139.934067","patrol02","37.521101","1445902631441","20151027_083459","-0.003"
"2015/10/27 08:34:59","3","-0.746","10.299","2860","139.934066","patrol02","37.521092","1445902631542","20151027_083459","-0.041"
"2015/10/27 08:34:59","3","-0.679","10.241","2861","139.934065","patrol02","37.521083","1445902631642","20151027_083459","-0.015"
"2015/10/27 08:34:59","3","-0.654","10.289","2862","139.934064","patrol02","37.521074","1445902631738","20151027_083459","-0.085"
"2015/10/27 08:34:59","3","-0.707","10.339","2863","139.934063","patrol02","37.521065","1445902631839","20151027_083459","-0.031"
"2015/10/27 08:34:59","3","-0.768","10.258","2864","139.934062","patrol02","37.521055","1445902631939","20151027_083459","-0.084"
"2015/10/27 08:34:59","3","-0.772","9.977","2865","139.934061","patrol02","37.521045","1445902632040","20151027_083459","-0.132"
"2015/10/27 08:34:59","3","-0.785","9.827","2866","139.934059","patrol02","37.521035","1445902632141","20151027_083459","-0.212"
"2015/10/27 08:34:59","3","-0.74","9.978","2867","139.934058","patrol02","37.521025","1445902632242","20151027_083459","-0.147"
"2015/10/27 08:34:59","3","-0.701","10.041","2868","139.934056","patrol02","37.521015","1445902632342","20151027_083459","-0.179"
"2015/10/27 08:34:59","3","-0.771","9.964","2869","139.934055","patrol02","37.521005","1445902632438","20151027_083459","-0.174"
"2015/10/27 08:34:59","3","-0.811","9.962","2870","139.934053","patrol02","37.520995","1445902632539","20151027_083459","-0.046"
"2015/10/27 08:34:59","3","-0.735","10.098","2871","139.934052","patrol02","37.520985","1445902632639","20151027_083459","-0.02"
"2015/10/27 08:34:59","3","-0.738","10.186","2872","139.93405","patrol02","37.520975","1445902632740","20151027_083459","0.141"
"2015/10/27 08:34:59","3","-0.833","10.124","2873","139.934049","patrol02","37.520965","1445902632841","20151027_083459","0.243"
"2015/10/27 08:34:59","3","-0.802","10.217","2874","139.934047","patrol02","37.520955","1445902632942","20151027_083459","0.218"
"2015/10/27 08:34:59","3","-0.767","10.035","2875","139.934045","patrol02","37.520946","1445902633042","20151027_083459","0.154"
"2015/10/27 08:34:59","3","-0.76","10.151","2876","139.934044","patrol02","37.520937","1445902633138","20151027_083459","0.192"
"2015/10/27 08:34:59","3","-0.705","10.409","2877","139.934042","patrol02","37.520927","1445902633239","20151027_083459","0.279"
"2015/10/27 08:34:59","3","-0.735","10.386","2878","139.934041","patrol02","37.520918","1445902633339","20151027_083459","0.335"
"2015/10/27 08:34:59","3","-0.731","10.27","2879","139.934039","patrol02","37.520908","1445902633440","20151027_083459","0.24"
"2015/10/27 08:34:59","3","-0.759","9.981","2880","139.934037","patrol02","37.520899","1445902633541","20151027_083459","0.171"
"2015/10/27 08:34:59","3","-0.691","9.886","2881","139.934036","patrol02","37.520889","1445902633641","20151027_083459","0.143"
"2015/10/27 08:34:59","3","-0.536","10.059","2882","139.934034","patrol02","37.52088","1445902633742","20151027_083459","0.147"
"2015/10/27 08:34:59","3","-0.58","9.976","2883","139.934033","patrol02","37.520871","1445902633838","20151027_083459","0.165"
"2015/10/27 08:34:59","3","-0.651","9.844","2884","139.934031","patrol02","37.520861","1445902633939","20151027_083459","0.136"
"2015/10/27 08:34:59","3","-0.54","10.048","2885","139.93403","patrol02","37.520851","1445902634039","20151027_083459","0.201"
"2015/10/27 08:34:59","3","-0.381","10.345","2886","139.934028","patrol02","37.520841","1445902634140","20151027_083459","0.279"
"2015/10/27 08:34:59","3","-0.408","10.355","2887","139.934027","patrol02","37.520831","1445902634241","20151027_083459","0.31"
"2015/10/27 08:34:59","3","-0.489","10.206","2888","139.934025","patrol02","37.520821","1445902634341","20151027_083459","0.289"
"2015/10/27 08:34:59","3","-0.498","10.095","2889","139.934024","patrol02","37.520811","1445902634442","20151027_083459","0.403"
"2015/10/27 08:34:59","3","-0.494","9.971","2890","139.934022","patrol02","37.520801","1445902634538","20151027_083459","0.194"
"2015/10/27 08:34:59","3","-0.526","9.845","2891","139.934021","patrol02","37.520791","1445902634638","20151027_083459","0.234"
"2015/10/27 08:34:59","3","-0.474","9.881","2892","139.934019","patrol02","37.520781","1445902634739","20151027_083459","0.258"
"2015/10/27 08:34:59","3","-0.399","10.049","2893","139.934018","patrol02","37.520771","1445902634840","20151027_083459","0.184"
"2015/10/27 08:34:59","3","-0.48","9.904","2894","139.934016","patrol02","37.520761","1445902634941","20151027_083459","0.17"
"2015/10/27 08:34:59","3","-0.486","9.944","2895","139.934014","patrol02","37.520751","1445902635041","20151027_083459","0.225"
"2015/10/27 08:34:59","3","-0.379","10.054","2896","139.934012","patrol02","37.520741","1445902635142","20151027_083459","0.448"
"2015/10/27 08:34:59","3","-0.459","9.833","2897","139.93401","patrol02","37.520732","1445902635238","20151027_083459","0.333"
"2015/10/27 08:34:59","3","-0.407","9.983","2898","139.934008","patrol02","37.520722","1445902635338","20151027_083459","0.334"
"2015/10/27 08:34:59","3","-0.239","10.524","2899","139.934006","patrol02","37.520712","1445902635439","20151027_083459","0.408"
"2015/10/27 08:34:59","3","-0.354","10.574","2900","139.934004","patrol02","37.520702","1445902635540","20151027_083459","0.552"
"2015/10/27 08:34:59","3","-0.619","10.028","2901","139.934002","patrol02","37.520693","1445902635640","20151027_083459","0.422"
"2015/10/27 08:34:59","3","-0.637","9.858","2902","139.934","patrol02","37.520683","1445902635741","20151027_083459","0.435"
"2015/10/27 08:34:59","3","-0.594","9.566","2903","139.933998","patrol02","37.520673","1445902635842","20151027_083459","0.559"
"2015/10/27 08:34:59","3","-0.604","9.198","2904","139.933996","patrol02","37.520663","1445902635938","20151027_083459","0.493"
"2015/10/27 08:34:59","3","-0.273","9.851","2905","139.933994","patrol02","37.520653","1445902636038","20151027_083459","0.5"
